Time,	Acc X,	Acc Y,	Acc Z,	GYR X,	GYR Y,	GYR Z
0.005647440813984772,	-0.15000000596046448,	0.0,	9.539999961853027,	0.0,	0.125,	-0.0625
0.011294881627969544,	-0.1899999976158142,	0.0,	9.539999961853027,	0.0,	0.125,	-0.0625
0.016942322441954316,	-0.1899999976158142,	0.0,	9.539999961853027,	-0.0625,	0.0625,	0.0
0.022589763255939088,	-0.1899999976158142,	-0.009999999776482582,	9.539999961853027,	0.125,	0.0,	0.0
0.02823720406992386,	-0.18000000715255737,	-0.009999999776482582,	9.5600004196167,	0.125,	0.0,	0.0
0.03388464488390863,	-0.18000000715255737,	-0.009999999776482582,	9.5600004196167,	0.125,	0.0,	-0.0625
0.039532085697893404,	-0.18000000715255737,	0.0,	9.539999961853027,	0.125,	0.0,	-0.0625
0.045179526511878176,	-0.18000000715255737,	0.0,	9.550000190734863,	-0.0625,	-0.0625,	-0.0625
0.05082696732586295,	-0.1899999976158142,	0.0,	9.550000190734863,	-0.0625,	-0.0625,	-0.0625
0.05647440813984772,	-0.1899999976158142,	0.0,	9.550000190734863,	0.0,	-0.0625,	-0.0625
0.06212184895383249,	-0.1899999976158142,	-0.019999999552965164,	9.529999732971191,	0.0,	-0.0625,	-0.0625
0.06776928976781726,	-0.1599999964237213,	-0.019999999552965164,	9.539999961853027,	0.0,	0.0,	-0.1875
0.07341673058180204,	-0.1599999964237213,	-0.019999999552965164,	9.539999961853027,	-0.1875,	0.0,	-0.0625
0.07906417139578681,	-0.14000000059604645,	-0.009999999776482582,	9.550000190734863,	-0.1875,	0.0,	-0.0625
0.08471161220977158,	-0.1599999964237213,	0.0,	9.569999694824219,	0.125,	0.125,	-0.1875
0.09035905302375635,	-0.18000000715255737,	0.0,	9.550000190734863,	0.125,	0.125,	-0.1875
0.09600649383774112,	-0.18000000715255737,	0.0,	9.550000190734863,	0.125,	-0.125,	-0.1875
0.1016539346517259,	-0.17000000178813934,	0.0,	9.569999694824219,	0.125,	-0.125,	-0.1875
0.10730137546571067,	-0.18000000715255737,	0.0,	9.569999694824219,	0.0625,	0.0625,	-0.0625
0.11294881627969544,	-0.18000000715255737,	0.0,	9.569999694824219,	0.0,	0.0625,	-0.0625
0.11859625709368021,	-0.17000000178813934,	0.0,	9.550000190734863,	0.0,	0.0625,	-0.0625
0.12424369790766499,	-0.17000000178813934,	-0.009999999776482582,	9.550000190734863,	0.0625,	0.0,	-0.1875
0.12989113872164976,	-0.17000000178813934,	-0.009999999776482582,	9.550000190734863,	0.0625,	0.0,	-0.1875
0.13553857953563453,	-0.17000000178813934,	0.0,	9.529999732971191,	0.0,	0.0625,	-0.0625
0.1411860203496193,	-0.1599999964237213,	-0.019999999552965164,	9.539999961853027,	0.0,	0.0625,	-0.0625
0.14683346116360407,	-0.17000000178813934,	-0.03999999910593033,	9.529999732971191,	0.0,	-0.125,	-0.125
0.15248090197758885,	-0.17000000178813934,	-0.03999999910593033,	9.529999732971191,	0.0,	-0.125,	-0.125
0.15812834279157362,	-0.17000000178813934,	-0.029999999329447746,	9.550000190734863,	0.0,	-0.25,	-0.125
0.1637757836055584,	-0.18000000715255737,	-0.029999999329447746,	9.529999732971191,	0.0625,	0.0,	-0.125
0.16942322441954316,	-0.18000000715255737,	-0.029999999329447746,	9.529999732971191,	0.0625,	0.0,	-0.125
0.17507066523352793,	-0.18000000715255737,	0.0,	9.550000190734863,	0.0625,	0.0,	-0.1875
0.1807181060475127,	-0.1599999964237213,	-0.009999999776482582,	9.59000015258789,	0.0625,	0.0,	-0.1875
0.18636554686149748,	-0.1599999964237213,	-0.009999999776482582,	9.59000015258789,	0.0,	-0.125,	0.0625
0.19201298767548225,	-0.14000000059604645,	-0.009999999776482582,	9.5600004196167,	0.0,	-0.125,	0.0625
0.19766042848946702,	-0.18000000715255737,	0.0,	9.539999961853027,	0.125,	-0.0625,	-0.125
0.2033078693034518,	-0.1899999976158142,	-0.019999999552965164,	9.5600004196167,	0.0,	0.0,	-0.0625
0.20895531011743657,	-0.1899999976158142,	-0.019999999552965164,	9.5600004196167,	0.0,	0.0,	-0.0625
0.21460275093142134,	-0.18000000715255737,	-0.009999999776482582,	9.529999732971191,	0.0,	-0.125,	-0.0625
0.2202501917454061,	-0.1599999964237213,	0.009999999776482582,	9.529999732971191,	0.0,	-0.125,	-0.0625
0.22589763255939088,	-0.1599999964237213,	0.009999999776482582,	9.529999732971191,	-0.0625,	0.125,	0.0
0.23154507337337565,	-0.17000000178813934,	0.0,	9.550000190734863,	-0.0625,	0.125,	0.0
0.23719251418736043,	-0.18000000715255737,	0.0,	9.5600004196167,	0.0625,	0.0,	-0.0625
0.2428399550013452,	-0.15000000596046448,	0.0,	9.539999961853027,	0.0,	-0.0625,	-0.0625
0.24848739581532997,	-0.15000000596046448,	0.0,	9.539999961853027,	0.0,	-0.0625,	-0.0625
0.25413483662931474,	-0.1599999964237213,	-0.019999999552965164,	9.550000190734863,	0.0,	-0.125,	0.0
0.2597822774432995,	-0.1599999964237213,	-0.009999999776482582,	9.579999923706055,	0.0,	-0.125,	0.0
0.2654297182572843,	-0.1599999964237213,	-0.009999999776482582,	9.579999923706055,	-0.125,	0.0625,	-0.125
0.27107715907126906,	-0.1599999964237213,	-0.019999999552965164,	9.569999694824219,	-0.125,	0.0625,	-0.125
0.27672459988525383,	-0.1599999964237213,	-0.009999999776482582,	9.529999732971191,	0.0625,	0.0625,	-0.0625
0.2823720406992386,	-0.1599999964237213,	-0.009999999776482582,	9.529999732971191,	0.0625,	0.0625,	-0.0625
0.2880194815132234,	-0.1599999964237213,	-0.009999999776482582,	9.529999732971191,	-0.0625,	-0.125,	-0.0625
0.29366692232720815,	-0.15000000596046448,	0.0,	9.550000190734863,	0.0,	-0.0625,	-0.0625
0.2993143631411929,	-0.1599999964237213,	0.0,	9.539999961853027,	0.0,	-0.0625,	-0.0625
0.3049618039551777,	-0.1599999964237213,	0.0,	9.539999961853027,	0.0625,	0.0,	-0.0625
0.31060924476916246,	-0.18000000715255737,	0.0,	9.550000190734863,	0.0625,	0.0,	-0.0625
0.31625668558314723,	-0.18000000715255737,	0.0,	9.5600004196167,	0.0,	0.0,	-0.1875
0.321904126397132,	-0.18000000715255737,	0.0,	9.5600004196167,	0.0,	0.0,	-0.1875
0.3275515672111168,	-0.1899999976158142,	-0.019999999552965164,	9.550000190734863,	-0.125,	-0.125,	-0.1875
0.33319900802510155,	-0.20000000298023224,	-0.029999999329447746,	9.520000457763672,	0.0,	0.0625,	-0.125
0.3388464488390863,	-0.1899999976158142,	0.0,	9.550000190734863,	0.0,	0.0625,	-0.125
0.3444938896530711,	-0.1899999976158142,	0.0,	9.550000190734863,	0.0,	-0.0625,	-0.0625
0.35014133046705587,	-0.17000000178813934,	0.0,	9.529999732971191,	0.0,	-0.0625,	-0.0625
0.35578877128104064,	-0.18000000715255737,	0.0,	9.5600004196167,	0.0,	0.0,	0.0625
0.3614362120950254,	-0.18000000715255737,	0.0,	9.5600004196167,	0.0,	0.0,	0.0625
0.3670836529090102,	-0.1599999964237213,	0.0,	9.529999732971191,	0.0625,	0.0625,	-0.0625
0.37273109372299496,	-0.17000000178813934,	0.0,	9.539999961853027,	-0.0625,	-0.125,	0.0
0.3783785345369797,	-0.17000000178813934,	0.0,	9.539999961853027,	-0.0625,	-0.125,	0.0
0.3840259753509645,	-0.1599999964237213,	0.0,	9.5600004196167,	0.0,	0.25,	-0.1875
0.38967341616494927,	-0.1599999964237213,	0.0,	9.510000228881836,	0.0,	0.25,	-0.1875
0.39532085697893404,	-0.18000000715255737,	0.0,	9.550000190734863,	-0.125,	-0.0625,	-0.0625
0.4009682977929188,	-0.18000000715255737,	0.0,	9.550000190734863,	-0.125,	-0.0625,	-0.0625
0.4066157386069036,	-0.18000000715255737,	0.0,	9.539999961853027,	0.0,	-0.0625,	-0.0625
0.41226317942088836,	-0.17000000178813934,	0.009999999776482582,	9.550000190734863,	0.0,	-0.0625,	-0.0625
0.41791062023487313,	-0.17000000178813934,	0.009999999776482582,	9.550000190734863,	-0.125,	0.0,	0.0
0.4235580610488579,	-0.1599999964237213,	0.0,	9.520000457763672,	-0.0625,	0.125,	-0.125
0.4292055018628427,	-0.17000000178813934,	-0.019999999552965164,	9.5600004196167,	-0.0625,	0.125,	-0.125
0.43485294267682745,	-0.17000000178813934,	-0.019999999552965164,	9.5600004196167,	0.125,	0.0,	-0.0625
0.4405003834908122,	-0.17000000178813934,	-0.019999999552965164,	9.529999732971191,	0.125,	0.0,	-0.0625
0.446147824304797,	-0.17000000178813934,	0.0,	9.520000457763672,	0.0,	0.125,	-0.125
0.45179526511878176,	-0.1599999964237213,	0.0,	9.550000190734863,	0.0,	0.125,	-0.125
0.45744270593276654,	-0.1599999964237213,	0.0,	9.550000190734863,	-0.0625,	-0.125,	-0.0625
0.4630901467467513,	-0.17000000178813934,	0.0,	9.529999732971191,	0.0,	-0.0625,	-0.0625
0.4687375875607361,	-0.1899999976158142,	0.0,	9.539999961853027,	0.0,	-0.0625,	-0.0625
0.47438502837472085,	-0.1899999976158142,	0.0,	9.539999961853027,	-0.0625,	0.0,	-0.0625
0.4800324691887056,	-0.18000000715255737,	0.0,	9.529999732971191,	-0.0625,	0.0,	-0.0625
0.4856799100026904,	-0.1899999976158142,	0.0,	9.550000190734863,	0.0625,	0.0,	-0.0625
0.49132735081667517,	-0.1899999976158142,	0.0,	9.529999732971191,	0.0625,	0.0,	-0.0625
0.49697479163065994,	-0.1899999976158142,	0.0,	9.529999732971191,	0.0625,	0.0,	-0.0625
0.5026222324446448,	-0.18000000715255737,	0.0,	9.5600004196167,	0.0625,	0.0,	-0.0625
0.5082696732586295,	-0.1899999976158142,	0.0,	9.539999961853027,	0.125,	-0.125,	-0.1875
0.5139171140726143,	-0.1899999976158142,	0.0,	9.539999961853027,	0.125,	-0.1875,	-0.0625
0.519564554886599,	-0.18000000715255737,	0.0,	9.5600004196167,	0.125,	-0.1875,	-0.0625
0.5252119957005839,	-0.1899999976158142,	-0.009999999776482582,	9.550000190734863,	0.0625,	-0.125,	-0.0625
0.5308594365145686,	-0.18000000715255737,	0.0,	9.539999961853027,	0.0625,	-0.125,	-0.0625
0.5365068773285534,	-0.18000000715255737,	0.0,	9.539999961853027,	-0.0625,	0.0,	-0.125
0.5421543181425381,	-0.17000000178813934,	-0.009999999776482582,	9.539999961853027,	-0.0625,	0.0,	-0.125
0.5478017589565229,	-0.1899999976158142,	0.0,	9.5600004196167,	0.0625,	0.0,	-0.25
0.5534491997705077,	-0.1899999976158142,	0.0,	9.5600004196167,	-0.0625,	0.0,	-0.0625
0.5590966405844925,	-0.17000000178813934,	0.0,	9.539999961853027,	-0.0625,	0.0,	-0.0625
0.5647440813984772,	-0.17000000178813934,	-0.009999999776482582,	9.569999694824219,	-0.0625,	0.125,	-0.125
0.570391522212462,	-0.17000000178813934,	-0.009999999776482582,	9.569999694824219,	-0.0625,	0.125,	-0.125
0.5760389630264467,	-0.18000000715255737,	0.0,	9.529999732971191,	0.0,	0.0625,	-0.0625
0.5816864038404316,	-0.17000000178813934,	0.0,	9.550000190734863,	0.0,	0.0625,	-0.0625
0.5873338446544163,	-0.1899999976158142,	0.0,	9.520000457763672,	0.0,	0.0,	-0.0625
0.5929812854684011,	-0.1899999976158142,	0.0,	9.520000457763672,	0.0,	0.0,	-0.0625
0.5986287262823858,	-0.18000000715255737,	0.0,	9.5600004196167,	-0.125,	0.1875,	-0.125
0.6042761670963707,	-0.18000000715255737,	-0.019999999552965164,	9.569999694824219,	-0.0625,	0.125,	0.0
0.6099236079103554,	-0.18000000715255737,	-0.019999999552965164,	9.569999694824219,	-0.0625,	0.125,	0.0
0.6155710487243402,	-0.15000000596046448,	0.0,	9.550000190734863,	0.0625,	0.0,	-0.0625
0.6212184895383249,	-0.17000000178813934,	-0.019999999552965164,	9.569999694824219,	0.0625,	0.0,	-0.0625
0.6268659303523098,	-0.17000000178813934,	-0.019999999552965164,	9.569999694824219,	-0.0625,	0.0,	-0.125
0.6325133711662945,	-0.17000000178813934,	0.0,	9.5600004196167,	-0.0625,	0.0,	-0.125
0.6381608119802793,	-0.1599999964237213,	0.0,	9.520000457763672,	-0.0625,	0.0,	-0.0625
0.643808252794264,	-0.17000000178813934,	0.0,	9.550000190734863,	-0.0625,	0.125,	-0.0625
0.6494556936082488,	-0.17000000178813934,	0.0,	9.550000190734863,	-0.0625,	0.125,	-0.0625
0.6551031344222336,	-0.1899999976158142,	-0.03999999910593033,	9.5600004196167,	0.125,	-0.125,	-0.0625
0.6607505752362184,	-0.15000000596046448,	-0.019999999552965164,	9.550000190734863,	0.125,	-0.125,	-0.0625
0.6663980160502031,	-0.15000000596046448,	-0.019999999552965164,	9.550000190734863,	0.0,	0.125,	-0.0625
0.6720454568641879,	-0.17000000178813934,	0.0,	9.550000190734863,	0.0,	0.125,	-0.0625
0.6776928976781726,	-0.1599999964237213,	-0.009999999776482582,	9.529999732971191,	-0.0625,	0.0625,	0.0
0.6833403384921575,	-0.1599999964237213,	-0.009999999776482582,	9.529999732971191,	-0.0625,	0.0625,	0.0
0.6889877793061422,	-0.18000000715255737,	0.0,	9.529999732971191,	-0.0625,	-0.0625,	-0.125
0.694635220120127,	-0.1899999976158142,	0.0,	9.539999961853027,	-0.0625,	0.0625,	-0.125
0.7002826609341117,	-0.1899999976158142,	0.0,	9.539999961853027,	-0.0625,	0.0625,	-0.125
0.7059301017480966,	-0.1899999976158142,	0.0,	9.539999961853027,	0.0,	0.0625,	-0.125
0.7115775425620813,	-0.18000000715255737,	0.0,	9.529999732971191,	0.0,	0.0625,	-0.125
0.7172249833760661,	-0.15000000596046448,	0.0,	9.550000190734863,	0.0,	0.0,	-0.125
0.7228724241900508,	-0.15000000596046448,	0.0,	9.550000190734863,	0.0,	0.0,	-0.125
0.7285198650040356,	-0.17000000178813934,	0.0,	9.579999923706055,	0.125,	-0.0625,	-0.0625
0.7341673058180204,	-0.1899999976158142,	0.0,	9.529999732971191,	0.125,	0.0,	-0.125
0.7398147466320052,	-0.1899999976158142,	0.0,	9.529999732971191,	0.125,	0.0,	-0.125
0.7454621874459899,	-0.18000000715255737,	0.0,	9.550000190734863,	-0.0625,	-0.0625,	-0.0625
0.7511096282599747,	-0.17000000178813934,	0.0,	9.539999961853027,	-0.0625,	-0.0625,	-0.0625
0.7567570690739595,	-0.1599999964237213,	0.009999999776482582,	9.539999961853027,	0.0,	0.0,	-0.125
0.7624045098879443,	-0.1599999964237213,	0.009999999776482582,	9.539999961853027,	0.0,	0.0,	-0.125
0.768051950701929,	-0.18000000715255737,	0.009999999776482582,	9.539999961853027,	-0.125,	0.0,	-0.125
0.7736993915159138,	-0.1899999976158142,	0.0,	9.529999732971191,	-0.125,	0.0,	-0.125
0.7793468323298985,	-0.1899999976158142,	0.0,	9.529999732971191,	-0.0625,	0.0,	-0.125
0.7849942731438834,	-0.18000000715255737,	0.0,	9.539999961853027,	0.0625,	0.0,	-0.125
0.7906417139578681,	-0.1599999964237213,	0.0,	9.550000190734863,	0.0625,	0.0,	-0.125
0.7962891547718529,	-0.1599999964237213,	0.0,	9.550000190734863,	0.0,	-0.0625,	-0.1875
0.8019365955858376,	-0.17000000178813934,	-0.009999999776482582,	9.5600004196167,	0.0,	-0.0625,	-0.1875
0.8075840363998225,	-0.18000000715255737,	-0.009999999776482582,	9.529999732971191,	0.0625,	-0.0625,	-0.0625
0.8132314772138072,	-0.1599999964237213,	-0.019999999552965164,	9.529999732971191,	0.0625,	-0.0625,	-0.0625
0.818878918027792,	-0.1599999964237213,	-0.019999999552965164,	9.529999732971191,	0.0625,	-0.0625,	0.0
0.8245263588417767,	-0.17000000178813934,	0.0,	9.5600004196167,	0.0,	-0.1875,	0.0
0.8301737996557615,	-0.1599999964237213,	0.0,	9.579999923706055,	0.0,	-0.1875,	0.0
0.8358212404697463,	-0.1599999964237213,	0.0,	9.579999923706055,	0.0,	0.0,	-0.125
0.8414686812837311,	-0.17000000178813934,	0.0,	9.5600004196167,	0.0,	0.0,	-0.125
0.8471161220977158,	-0.17000000178813934,	0.0,	9.529999732971191,	0.0625,	-0.125,	-0.0625
0.8527635629117006,	-0.18000000715255737,	0.0,	9.520000457763672,	0.0625,	-0.125,	-0.0625
0.8584110037256854,	-0.18000000715255737,	0.0,	9.520000457763672,	-0.0625,	0.0,	0.0
0.8640584445396702,	-0.1899999976158142,	0.009999999776482582,	9.539999961853027,	-0.0625,	0.0,	0.0
0.8697058853536549,	-0.17000000178813934,	0.009999999776482582,	9.550000190734863,	-0.0625,	0.0625,	-0.0625
0.8753533261676397,	-0.17000000178813934,	0.009999999776482582,	9.550000190734863,	0.0,	-0.0625,	0.0
0.8810007669816244,	-0.20999999344348907,	0.0,	9.539999961853027,	0.0,	-0.0625,	0.0
0.8866482077956093,	-0.18000000715255737,	-0.019999999552965164,	9.5600004196167,	0.0625,	-0.1875,	-0.0625
0.892295648609594,	-0.18000000715255737,	-0.019999999552965164,	9.5600004196167,	0.0625,	-0.1875,	-0.0625
0.8979430894235788,	-0.18000000715255737,	0.0,	9.539999961853027,	-0.0625,	0.125,	-0.125
0.9035905302375635,	-0.17000000178813934,	-0.009999999776482582,	9.529999732971191,	-0.0625,	0.125,	-0.125
0.9092379710515484,	-0.1599999964237213,	-0.009999999776482582,	9.539999961853027,	-0.0625,	0.25,	-0.0625
0.9148854118655331,	-0.1599999964237213,	-0.009999999776482582,	9.539999961853027,	0.0,	-0.0625,	-0.0625
0.9205328526795179,	-0.1599999964237213,	-0.03999999910593033,	9.5600004196167,	0.0,	-0.0625,	-0.0625
0.9261802934935026,	-0.18000000715255737,	-0.019999999552965164,	9.550000190734863,	0.0625,	-0.1875,	-0.0625
0.9318277343074874,	-0.18000000715255737,	-0.019999999552965164,	9.550000190734863,	0.0625,	-0.1875,	-0.0625
0.9374751751214722,	-0.1599999964237213,	-0.009999999776482582,	9.529999732971191,	0.0625,	-0.125,	-0.1875
0.943122615935457,	-0.18000000715255737,	0.0,	9.539999961853027,	0.0625,	-0.125,	-0.1875
0.9487700567494417,	-0.17000000178813934,	0.0,	9.550000190734863,	0.0,	0.0,	-0.1875
0.9544174975634265,	-0.17000000178813934,	0.0,	9.550000190734863,	0.0,	0.0,	-0.1875
0.9600649383774112,	-0.1899999976158142,	0.0,	9.539999961853027,	0.0,	0.125,	0.0
0.9657123791913961,	-0.17000000178813934,	0.0,	9.529999732971191,	-0.125,	-0.0625,	-0.0625
0.9713598200053808,	-0.17000000178813934,	0.0,	9.529999732971191,	-0.125,	-0.0625,	-0.0625
0.9770072608193656,	-0.1599999964237213,	0.0,	9.550000190734863,	-0.0625,	0.0625,	-0.125
0.9826547016333503,	-0.18000000715255737,	-0.009999999776482582,	9.550000190734863,	-0.0625,	0.0625,	-0.125
0.9883021424473352,	-0.18000000715255737,	-0.009999999776482582,	9.550000190734863,	0.0625,	0.0625,	-0.125
0.9939495832613199,	-0.17000000178813934,	0.0,	9.539999961853027,	0.0625,	0.0625,	-0.125
0.9995970240753047,	-0.1599999964237213,	0.0,	9.539999961853027,	-0.0625,	0.0,	-0.1875
1.0052444648892895,	-0.1599999964237213,	-0.009999999776482582,	9.550000190734863,	-0.0625,	0.0,	-0.0625
1.0108919057032741,	-0.1599999964237213,	-0.009999999776482582,	9.550000190734863,	-0.0625,	0.0,	-0.0625
1.016539346517259,	-0.18000000715255737,	0.0,	9.520000457763672,	0.0,	0.125,	0.0
1.0221867873312438,	-0.17000000178813934,	-0.019999999552965164,	9.539999961853027,	0.0,	0.125,	0.0
1.0278342281452286,	-0.17000000178813934,	-0.019999999552965164,	9.539999961853027,	-0.125,	-0.0625,	0.0
1.0334816689592132,	-0.17000000178813934,	-0.019999999552965164,	9.520000457763672,	-0.125,	-0.0625,	0.0
1.039129109773198,	-0.1899999976158142,	0.0,	9.539999961853027,	0.0625,	-0.0625,	0.0
1.0447765505871829,	-0.1899999976158142,	0.0,	9.539999961853027,	0.0625,	-0.0625,	0.0
1.0504239914011677,	-0.18000000715255737,	-0.009999999776482582,	9.520000457763672,	0.0,	-0.1875,	-0.125
1.0560714322151523,	-0.18000000715255737,	0.0,	9.569999694824219,	0.0625,	0.0625,	-0.0625
1.0617188730291371,	-0.17000000178813934,	0.0,	9.529999732971191,	0.0625,	0.0625,	-0.0625
1.067366313843122,	-0.17000000178813934,	0.0,	9.529999732971191,	-0.0625,	0.125,	-0.0625
1.0730137546571068,	-0.1599999964237213,	0.0,	9.550000190734863,	-0.0625,	0.125,	-0.0625
1.0786611954710914,	-0.15000000596046448,	0.0,	9.5600004196167,	0.0,	0.125,	-0.0625
1.0843086362850762,	-0.15000000596046448,	0.0,	9.5600004196167,	0.0,	0.125,	-0.0625
1.089956077099061,	-0.17000000178813934,	0.0,	9.550000190734863,	-0.0625,	-0.0625,	-0.0625
1.0956035179130459,	-0.1599999964237213,	-0.009999999776482582,	9.520000457763672,	-0.0625,	0.0,	-0.1875
1.1012509587270305,	-0.18000000715255737,	0.0,	9.550000190734863,	-0.0625,	0.0,	-0.1875
1.1068983995410153,	-0.18000000715255737,	0.0,	9.550000190734863,	0.0,	0.125,	-0.0625
1.1125458403550001,	-0.17000000178813934,	0.0,	9.520000457763672,	0.0,	0.125,	-0.0625
1.118193281168985,	-0.1899999976158142,	-0.019999999552965164,	9.550000190734863,	0.0625,	0.0,	-0.125
1.1238407219829696,	-0.1899999976158142,	-0.019999999552965164,	9.550000190734863,	0.0625,	0.0,	-0.125
1.1294881627969544,	-0.18000000715255737,	0.0,	9.550000190734863,	0.0625,	0.0,	-0.125
1.1351356036109392,	-0.1899999976158142,	0.0,	9.539999961853027,	0.0,	0.0,	-0.125
1.140783044424924,	-0.1599999964237213,	-0.009999999776482582,	9.5600004196167,	0.0,	0.0,	-0.125
1.1464304852389087,	-0.1599999964237213,	-0.009999999776482582,	9.5600004196167,	0.0,	-0.125,	-0.1875
1.1520779260528935,	-0.1899999976158142,	0.0,	9.579999923706055,	0.0,	-0.125,	-0.1875
1.1577253668668783,	-0.17000000178813934,	0.0,	9.550000190734863,	0.0625,	-0.125,	0.0
1.1633728076808632,	-0.17000000178813934,	0.0,	9.550000190734863,	0.0625,	-0.125,	0.0
1.1690202484948478,	-0.17000000178813934,	-0.009999999776482582,	9.539999961853027,	-0.0625,	-0.0625,	-0.1875
1.1746676893088326,	-0.1599999964237213,	-0.009999999776482582,	9.539999961853027,	-0.0625,	-0.125,	0.0625
1.1803151301228174,	-0.1599999964237213,	-0.009999999776482582,	9.539999961853027,	-0.0625,	-0.125,	0.0625
1.1859625709368022,	-0.17000000178813934,	-0.009999999776482582,	9.550000190734863,	-0.125,	0.125,	-0.0625
1.1916100117507868,	-0.1599999964237213,	-0.029999999329447746,	9.550000190734863,	-0.125,	0.125,	-0.0625
1.1972574525647717,	-0.17000000178813934,	0.0,	9.539999961853027,	-0.0625,	-0.0625,	-0.125
1.2029048933787565,	-0.17000000178813934,	0.0,	9.539999961853027,	-0.0625,	-0.0625,	-0.125
1.2085523341927413,	-0.18000000715255737,	0.0,	9.550000190734863,	-0.125,	0.0625,	-0.0625
1.214199775006726,	-0.15000000596046448,	0.0,	9.539999961853027,	-0.125,	0.0625,	-0.0625
1.2198472158207108,	-0.15000000596046448,	0.0,	9.539999961853027,	0.0625,	0.0,	-0.125
1.2254946566346956,	-0.1899999976158142,	-0.009999999776482582,	9.539999961853027,	-0.0625,	0.0,	0.0
1.2311420974486804,	-0.20000000298023224,	0.0,	9.539999961853027,	-0.0625,	0.0,	0.0
1.236789538262665,	-0.17000000178813934,	0.0,	9.529999732971191,	-0.125,	-0.125,	0.0
1.2424369790766499,	-0.17000000178813934,	0.0,	9.529999732971191,	-0.125,	-0.125,	0.0
1.2480844198906347,	-0.17000000178813934,	0.009999999776482582,	9.550000190734863,	-0.125,	-0.1875,	0.0
1.2537318607046195,	-0.17000000178813934,	0.0,	9.5600004196167,	-0.125,	-0.1875,	0.0
1.259379301518604,	-0.17000000178813934,	0.0,	9.5600004196167,	0.0,	-0.125,	-0.0625
1.265026742332589,	-0.1599999964237213,	0.0,	9.5600004196167,	-0.125,	0.0,	-0.0625
1.2706741831465738,	-0.18000000715255737,	0.0,	9.529999732971191,	-0.125,	0.0,	-0.0625
1.2763216239605586,	-0.18000000715255737,	0.0,	9.529999732971191,	0.0625,	-0.0625,	0.0
1.2819690647745432,	-0.15000000596046448,	-0.009999999776482582,	9.550000190734863,	0.0625,	-0.0625,	0.0
1.287616505588528,	-0.18000000715255737,	-0.009999999776482582,	9.5600004196167,	-0.0625,	0.0,	-0.0625
1.2932639464025129,	-0.18000000715255737,	0.0,	9.550000190734863,	-0.0625,	0.0,	-0.0625
1.2989113872164977,	-0.18000000715255737,	0.0,	9.550000190734863,	0.0625,	0.125,	-0.0625
1.3045588280304823,	-0.18000000715255737,	0.0,	9.550000190734863,	-0.0625,	-0.0625,	-0.125
1.3102062688444671,	-0.17000000178813934,	-0.009999999776482582,	9.539999961853027,	-0.0625,	-0.0625,	-0.125
1.315853709658452,	-0.17000000178813934,	-0.009999999776482582,	9.539999961853027,	0.0,	-0.125,	0.0
1.3215011504724368,	-0.15000000596046448,	0.0,	9.569999694824219,	0.0,	-0.125,	0.0
1.3271485912864214,	-0.17000000178813934,	0.0,	9.529999732971191,	-0.125,	0.0,	-0.0625
1.3327960321004062,	-0.17000000178813934,	0.0,	9.520000457763672,	-0.125,	0.0,	-0.0625
1.338443472914391,	-0.17000000178813934,	0.0,	9.520000457763672,	0.125,	-0.1875,	0.0
1.3440909137283759,	-0.18000000715255737,	0.009999999776482582,	9.569999694824219,	0.125,	-0.1875,	0.0
1.3497383545423605,	-0.18000000715255737,	0.0,	9.569999694824219,	0.0625,	0.0625,	-0.1875
1.3553857953563453,	-0.18000000715255737,	0.0,	9.569999694824219,	0.125,	0.125,	-0.25
1.3610332361703301,	-0.18000000715255737,	0.0,	9.539999961853027,	0.125,	0.125,	-0.25
1.366680676984315,	-0.1899999976158142,	0.0,	9.539999961853027,	0.125,	0.0,	-0.0625
1.3723281177982996,	-0.1899999976158142,	0.0,	9.539999961853027,	0.125,	0.0,	-0.0625
1.3779755586122844,	-0.1899999976158142,	0.0,	9.529999732971191,	0.0,	0.0,	-0.1875
1.3836229994262692,	-0.18000000715255737,	-0.009999999776482582,	9.529999732971191,	0.0,	0.0,	-0.1875
1.389270440240254,	-0.17000000178813934,	-0.009999999776482582,	9.5600004196167,	-0.0625,	-0.0625,	0.0
1.3949178810542386,	-0.17000000178813934,	-0.009999999776482582,	9.5600004196167,	-0.0625,	-0.0625,	0.0
1.4005653218682235,	-0.1599999964237213,	0.0,	9.510000228881836,	0.0,	0.125,	0.0625
1.4062127626822083,	-0.17000000178813934,	-0.009999999776482582,	9.539999961853027,	0.0,	0.125,	-0.0625
1.4118602034961931,	-0.17000000178813934,	-0.009999999776482582,	9.539999961853027,	0.0,	0.125,	-0.0625
1.4175076443101777,	-0.1599999964237213,	0.0,	9.5600004196167,	0.0625,	-0.0625,	-0.125
1.4231550851241626,	-0.18000000715255737,	0.0,	9.539999961853027,	0.0625,	-0.0625,	-0.125
1.4288025259381474,	-0.18000000715255737,	0.0,	9.539999961853027,	-0.0625,	-0.0625,	-0.125
1.4344499667521322,	-0.17000000178813934,	0.0,	9.5600004196167,	-0.0625,	-0.0625,	-0.125
1.4400974075661168,	-0.17000000178813934,	-0.009999999776482582,	9.510000228881836,	0.0625,	0.0,	-0.0625
1.4457448483801016,	-0.1599999964237213,	0.0,	9.539999961853027,	-0.0625,	-0.1875,	-0.0625
1.4513922891940865,	-0.1599999964237213,	0.0,	9.539999961853027,	-0.0625,	-0.1875,	-0.0625
1.4570397300080713,	-0.1599999964237213,	-0.019999999552965164,	9.539999961853027,	0.0,	0.125,	-0.1875
1.462687170822056,	-0.1599999964237213,	-0.009999999776482582,	9.579999923706055,	0.0,	0.125,	-0.1875
1.4683346116360407,	-0.1599999964237213,	-0.009999999776482582,	9.579999923706055,	-0.0625,	0.0,	-0.0625
1.4739820524500256,	-0.1599999964237213,	-0.019999999552965164,	9.550000190734863,	-0.0625,	0.0,	-0.0625
1.4796294932640104,	-0.17000000178813934,	-0.009999999776482582,	9.5600004196167,	-0.0625,	-0.0625,	0.0
1.485276934077995,	-0.18000000715255737,	-0.009999999776482582,	9.569999694824219,	-0.0625,	0.125,	-0.125
1.4909243748919798,	-0.18000000715255737,	-0.009999999776482582,	9.569999694824219,	-0.0625,	0.125,	-0.125
1.4965718157059646,	-0.18000000715255737,	-0.009999999776482582,	9.550000190734863,	-0.125,	0.0625,	-0.0625
1.5022192565199495,	-0.17000000178813934,	0.0,	9.539999961853027,	-0.125,	0.0625,	-0.0625
1.507866697333934,	-0.17000000178813934,	0.0,	9.539999961853027,	0.0625,	-0.0625,	-0.1875
1.513514138147919,	-0.1599999964237213,	0.009999999776482582,	9.550000190734863,	0.0625,	-0.0625,	-0.1875
1.5191615789619037,	-0.18000000715255737,	0.0,	9.569999694824219,	0.0625,	0.0,	-0.0625
1.5248090197758886,	-0.1599999964237213,	0.0,	9.539999961853027,	0.0625,	0.0,	-0.0625
1.5304564605898732,	-0.1599999964237213,	0.0,	9.539999961853027,	-0.0625,	0.0625,	-0.0625
1.536103901403858,	-0.18000000715255737,	0.0,	9.529999732971191,	0.0,	-0.0625,	-0.1875
1.5417513422178428,	-0.18000000715255737,	0.0,	9.529999732971191,	0.0,	-0.0625,	-0.1875
1.5473987830318277,	-0.18000000715255737,	0.0,	9.529999732971191,	0.125,	-0.0625,	-0.0625
1.5530462238458123,	-0.1599999964237213,	0.0,	9.529999732971191,	0.125,	-0.0625,	-0.0625
1.558693664659797,	-0.17000000178813934,	0.0,	9.539999961853027,	0.0625,	-0.0625,	-0.0625
1.564341105473782,	-0.17000000178813934,	0.0,	9.539999961853027,	0.0625,	-0.0625,	-0.0625
1.5699885462877667,	-0.18000000715255737,	-0.009999999776482582,	9.539999961853027,	0.0625,	-0.125,	-0.125
1.5756359871017513,	-0.18000000715255737,	0.0,	9.539999961853027,	0.0,	-0.0625,	0.0625
1.5812834279157362,	-0.18000000715255737,	-0.029999999329447746,	9.539999961853027,	0.0,	-0.0625,	0.0625
1.586930868729721,	-0.18000000715255737,	-0.029999999329447746,	9.539999961853027,	-0.0625,	0.0,	-0.0625
1.5925783095437058,	-0.18000000715255737,	0.0,	9.550000190734863,	-0.0625,	0.0,	-0.0625
1.5982257503576904,	-0.18000000715255737,	-0.019999999552965164,	9.5600004196167,	-0.1875,	0.125,	-0.125
1.6038731911716753,	-0.18000000715255737,	-0.019999999552965164,	9.5600004196167,	-0.1875,	0.125,	-0.125
1.60952063198566,	-0.18000000715255737,	0.0,	9.539999961853027,	0.0,	0.125,	-0.125
1.615168072799645,	-0.18000000715255737,	0.0,	9.569999694824219,	0.0,	-0.0625,	-0.0625
1.6208155136136295,	-0.18000000715255737,	0.0,	9.569999694824219,	0.0,	-0.0625,	-0.0625
1.6264629544276143,	-0.17000000178813934,	0.0,	9.539999961853027,	-0.125,	-0.0625,	-0.0625
1.6321103952415992,	-0.18000000715255737,	0.0,	9.539999961853027,	-0.125,	-0.0625,	-0.0625
1.637757836055584,	-0.18000000715255737,	0.0,	9.550000190734863,	0.0,	-0.125,	-0.1875
1.6434052768695686,	-0.18000000715255737,	0.0,	9.550000190734863,	0.0,	-0.125,	-0.1875
1.6490527176835534,	-0.18000000715255737,	-0.019999999552965164,	9.550000190734863,	-0.0625,	0.0625,	-0.125
1.6547001584975383,	-0.18000000715255737,	0.0,	9.529999732971191,	-0.0625,	0.0625,	-0.125
1.660347599311523,	-0.18000000715255737,	0.0,	9.529999732971191,	0.0,	-0.1875,	0.0
1.6659950401255077,	-0.17000000178813934,	0.0,	9.569999694824219,	0.0,	-0.0625,	-0.125
1.6716424809394925,	-0.17000000178813934,	0.0,	9.550000190734863,	0.0,	-0.0625,	-0.125
1.6772899217534774,	-0.17000000178813934,	0.0,	9.550000190734863,	0.0,	0.0625,	-0.125
1.6829373625674622,	-0.17000000178813934,	-0.009999999776482582,	9.520000457763672,	0.0,	0.0625,	-0.125
1.6885848033814468,	-0.17000000178813934,	-0.019999999552965164,	9.539999961853027,	0.0,	0.0,	0.0
1.6942322441954316,	-0.1599999964237213,	0.0,	9.539999961853027,	0.0,	0.0,	0.0
1.6998796850094164,	-0.1599999964237213,	0.0,	9.539999961853027,	-0.0625,	-0.125,	-0.0625
1.7055271258234013,	-0.18000000715255737,	0.0,	9.539999961853027,	-0.0625,	-0.0625,	-0.125
1.7111745666373859,	-0.1599999964237213,	0.0,	9.550000190734863,	-0.0625,	-0.0625,	-0.125
1.7168220074513707,	-0.1599999964237213,	0.0,	9.550000190734863,	0.125,	-0.125,	-0.125
1.7224694482653555,	-0.1899999976158142,	0.0,	9.529999732971191,	0.125,	-0.125,	-0.125
1.7281168890793404,	-0.18000000715255737,	0.0,	9.550000190734863,	-0.0625,	0.0625,	-0.0625
1.733764329893325,	-0.17000000178813934,	0.0,	9.550000190734863,	-0.0625,	0.0625,	-0.0625
1.7394117707073098,	-0.17000000178813934,	0.0,	9.550000190734863,	-0.0625,	0.0625,	-0.125
1.7450592115212946,	-0.1599999964237213,	0.0,	9.550000190734863,	-0.0625,	0.0625,	-0.125
1.7507066523352794,	-0.18000000715255737,	-0.009999999776482582,	9.529999732971191,	0.0,	0.0625,	-0.1875
1.756354093149264,	-0.18000000715255737,	-0.009999999776482582,	9.529999732971191,	0.0,	0.0,	-0.125
1.7620015339632489,	-0.18000000715255737,	-0.019999999552965164,	9.510000228881836,	0.0,	0.0,	-0.125
1.7676489747772337,	-0.1599999964237213,	0.0,	9.550000190734863,	-0.0625,	0.125,	-0.125
1.7732964155912185,	-0.18000000715255737,	0.0,	9.550000190734863,	-0.0625,	0.125,	-0.125
1.7789438564052031,	-0.18000000715255737,	0.0,	9.550000190734863,	-0.0625,	0.25,	-0.125
1.784591297219188,	-0.20000000298023224,	0.0,	9.5600004196167,	-0.0625,	0.25,	-0.125
1.7902387380331728,	-0.17000000178813934,	0.0,	9.5600004196167,	0.0,	-0.125,	0.0
1.7958861788471576,	-0.17000000178813934,	0.0,	9.5600004196167,	0.0,	-0.0625,	-0.125
1.8015336196611422,	-0.1599999964237213,	0.0,	9.529999732971191,	0.0,	-0.0625,	-0.125
1.807181060475127,	-0.17000000178813934,	0.0,	9.529999732971191,	0.0625,	0.0,	0.0
1.8128285012891119,	-0.17000000178813934,	0.0,	9.529999732971191,	0.0625,	0.0,	0.0
1.8184759421030967,	-0.1599999964237213,	0.0,	9.539999961853027,	-0.0625,	-0.0625,	-0.0625
1.8241233829170813,	-0.17000000178813934,	0.0,	9.5600004196167,	-0.0625,	-0.0625,	-0.0625
1.8297708237310661,	-0.1599999964237213,	-0.009999999776482582,	9.539999961853027,	-0.0625,	-0.0625,	-0.0625
1.835418264545051,	-0.1599999964237213,	-0.009999999776482582,	9.539999961853027,	-0.0625,	-0.0625,	-0.0625
1.8410657053590358,	-0.1599999964237213,	0.0,	9.5600004196167,	-0.0625,	0.0,	-0.0625
1.8467131461730204,	-0.18000000715255737,	-0.029999999329447746,	9.5600004196167,	0.0625,	-0.0625,	0.0
1.8523605869870052,	-0.18000000715255737,	-0.029999999329447746,	9.5600004196167,	0.0625,	-0.0625,	0.0
1.85800802780099,	-0.17000000178813934,	0.0,	9.550000190734863,	-0.125,	-0.125,	-0.125
1.8636554686149749,	-0.1899999976158142,	-0.019999999552965164,	9.550000190734863,	-0.125,	-0.125,	-0.125
1.8693029094289595,	-0.1899999976158142,	-0.019999999552965164,	9.550000190734863,	-0.0625,	0.0,	-0.125
1.8749503502429443,	-0.17000000178813934,	-0.009999999776482582,	9.550000190734863,	-0.0625,	0.0,	-0.125
1.8805977910569291,	-0.17000000178813934,	-0.009999999776482582,	9.529999732971191,	0.0625,	-0.0625,	-0.0625
1.886245231870914,	-0.15000000596046448,	0.009999999776482582,	9.550000190734863,	-0.125,	-0.0625,	-0.0625
1.8918926726848986,	-0.15000000596046448,	0.009999999776482582,	9.550000190734863,	-0.125,	-0.0625,	-0.0625
1.8975401134988834,	-0.18000000715255737,	0.0,	9.539999961853027,	0.0625,	-0.0625,	0.0
1.9031875543128682,	-0.20000000298023224,	0.0,	9.550000190734863,	0.0625,	-0.0625,	0.0
1.908834995126853,	-0.20000000298023224,	0.0,	9.550000190734863,	-0.0625,	0.0625,	-0.125
1.9144824359408377,	-0.17000000178813934,	0.0,	9.5600004196167,	-0.0625,	0.0625,	-0.125
1.9201298767548225,	-0.17000000178813934,	-0.009999999776482582,	9.550000190734863,	0.0,	0.0625,	-0.125
1.9257773175688073,	-0.18000000715255737,	0.0,	9.539999961853027,	-0.1875,	0.1875,	-0.125
1.9314247583827922,	-0.18000000715255737,	0.0,	9.539999961853027,	-0.1875,	0.1875,	-0.125
1.9370721991967768,	-0.17000000178813934,	-0.009999999776482582,	9.539999961853027,	0.1875,	0.0625,	0.0
1.9427196400107616,	-0.18000000715255737,	-0.009999999776482582,	9.529999732971191,	0.1875,	0.0625,	0.0
1.9483670808247464,	-0.18000000715255737,	-0.009999999776482582,	9.529999732971191,	0.0,	0.125,	0.0
1.9540145216387312,	-0.18000000715255737,	-0.009999999776482582,	9.5600004196167,	0.0,	0.125,	0.0
1.9596619624527158,	-0.18000000715255737,	0.0,	9.529999732971191,	0.0625,	-0.0625,	-0.0625
1.9653094032667007,	-0.1899999976158142,	-0.009999999776482582,	9.539999961853027,	0.0625,	-0.0625,	-0.0625
1.9709568440806855,	-0.1899999976158142,	-0.009999999776482582,	9.539999961853027,	0.0,	0.0,	0.0
1.9766042848946703,	-0.14000000059604645,	0.0,	9.529999732971191,	-0.0625,	0.0625,	0.0
1.982251725708655,	-0.17000000178813934,	0.0,	9.550000190734863,	-0.0625,	0.0625,	0.0
1.9878991665226398,	-0.17000000178813934,	0.0,	9.550000190734863,	-0.125,	0.0625,	-0.125
1.9935466073366246,	-0.17000000178813934,	0.0,	9.550000190734863,	-0.125,	0.0625,	-0.125
1.9991940481506094,	-0.17000000178813934,	0.0,	9.539999961853027,	0.0625,	-0.0625,	-0.125
2.004841488964594,	-0.17000000178813934,	0.0,	9.539999961853027,	0.0625,	-0.0625,	-0.125
2.010488929778579,	-0.18000000715255737,	0.0,	9.520000457763672,	0.0,	0.0,	-0.1875
2.0161363705925637,	-0.1899999976158142,	-0.009999999776482582,	9.539999961853027,	-0.0625,	-0.0625,	-0.0625
2.0217838114065483,	-0.18000000715255737,	-0.009999999776482582,	9.539999961853027,	-0.0625,	-0.0625,	-0.0625
2.0274312522205333,	-0.18000000715255737,	-0.009999999776482582,	9.539999961853027,	0.0,	-0.0625,	-0.125
2.033078693034518,	-0.18000000715255737,	0.0,	9.550000190734863,	0.0,	-0.0625,	-0.125
2.0387261338485025,	-0.1899999976158142,	0.0,	9.550000190734863,	-0.125,	-0.0625,	-0.1875
2.0443735746624876,	-0.1899999976158142,	0.0,	9.550000190734863,	-0.125,	-0.0625,	-0.1875
2.050021015476472,	-0.17000000178813934,	0.0,	9.539999961853027,	0.0,	0.0625,	-0.25
2.0556684562904572,	-0.18000000715255737,	0.0,	9.579999923706055,	-0.0625,	0.0625,	0.0
2.061315897104442,	-0.18000000715255737,	0.0,	9.579999923706055,	-0.0625,	0.0625,	0.0
2.0669633379184265,	-0.1899999976158142,	0.0,	9.5600004196167,	-0.0625,	0.0625,	-0.125
2.0726107787324115,	-0.1899999976158142,	0.0,	9.529999732971191,	-0.0625,	0.0625,	-0.125
2.078258219546396,	-0.17000000178813934,	0.0,	9.529999732971191,	0.0,	-0.25,	-0.0625
2.0839056603603807,	-0.17000000178813934,	0.0,	9.529999732971191,	0.0,	-0.25,	-0.0625
2.0895531011743658,	-0.18000000715255737,	0.009999999776482582,	9.550000190734863,	0.0625,	-0.125,	-0.0625
2.0952005419883504,	-0.1899999976158142,	-0.009999999776482582,	9.550000190734863,	0.0625,	-0.125,	-0.0625
2.1008479828023354,	-0.1899999976158142,	-0.009999999776482582,	9.550000190734863,	-0.0625,	0.0625,	-0.125
2.10649542361632,	-0.1599999964237213,	-0.019999999552965164,	9.550000190734863,	0.0,	0.125,	-0.0625
2.1121428644303046,	-0.17000000178813934,	0.0,	9.550000190734863,	0.0,	0.125,	-0.0625
2.1177903052442897,	-0.18000000715255737,	0.0,	9.550000190734863,	-0.0625,	0.0625,	-0.0625
2.1234377460582743,	-0.18000000715255737,	0.0,	9.550000190734863,	-0.0625,	0.0625,	-0.0625
2.1290851868722593,	-0.17000000178813934,	-0.029999999329447746,	9.579999923706055,	0.0625,	-0.125,	-0.0625
2.134732627686244,	-0.1899999976158142,	-0.009999999776482582,	9.529999732971191,	0.0625,	-0.125,	-0.0625
2.1403800685002285,	-0.1899999976158142,	-0.009999999776482582,	9.529999732971191,	0.125,	0.0,	-0.1875
2.1460275093142136,	-0.17000000178813934,	-0.03999999910593033,	9.550000190734863,	-0.0625,	-0.0625,	0.0
2.151674950128198,	-0.17000000178813934,	0.0,	9.539999961853027,	-0.0625,	-0.0625,	0.0
2.157322390942183,	-0.17000000178813934,	0.0,	9.539999961853027,	-0.0625,	-0.0625,	-0.0625
2.162969831756168,	-0.1899999976158142,	-0.009999999776482582,	9.539999961853027,	-0.0625,	-0.0625,	-0.0625
2.1686172725701525,	-0.17000000178813934,	0.0,	9.550000190734863,	0.0,	-0.1875,	0.0
2.1742647133841375,	-0.1899999976158142,	0.009999999776482582,	9.529999732971191,	0.0,	-0.1875,	0.0
2.179912154198122,	-0.1899999976158142,	0.009999999776482582,	9.529999732971191,	0.0,	-0.125,	-0.125
2.1855595950121067,	-0.17000000178813934,	0.0,	9.550000190734863,	0.0,	-0.125,	-0.125
2.1912070358260918,	-0.18000000715255737,	0.019999999552965164,	9.5600004196167,	0.0625,	0.0,	-0.125
2.1968544766400764,	-0.18000000715255737,	0.019999999552965164,	9.5600004196167,	0.0,	-0.0625,	-0.125
2.202501917454061,	-0.18000000715255737,	0.0,	9.550000190734863,	0.0,	-0.0625,	-0.125
2.208149358268046,	-0.17000000178813934,	-0.009999999776482582,	9.569999694824219,	-0.0625,	0.0625,	-0.0625
2.2137967990820306,	-0.17000000178813934,	-0.009999999776482582,	9.569999694824219,	-0.0625,	0.0625,	-0.0625
2.2194442398960157,	-0.17000000178813934,	-0.009999999776482582,	9.520000457763672,	0.125,	-0.0625,	0.0625
2.2250916807100003,	-0.20000000298023224,	-0.019999999552965164,	9.529999732971191,	0.125,	-0.0625,	0.0625
2.230739121523985,	-0.1599999964237213,	-0.019999999552965164,	9.5600004196167,	-0.25,	-0.0625,	-0.0625
2.23638656233797,	-0.1599999964237213,	-0.019999999552965164,	9.5600004196167,	-0.25,	-0.0625,	-0.0625
2.2420340031519546,	-0.17000000178813934,	-0.019999999552965164,	9.520000457763672,	-0.0625,	0.0625,	-0.0625
2.247681443965939,	-0.1599999964237213,	0.0,	9.539999961853027,	-0.0625,	0.0,	-0.0625
2.253328884779924,	-0.1599999964237213,	0.0,	9.539999961853027,	-0.0625,	0.0,	-0.0625
2.258976325593909,	-0.17000000178813934,	-0.009999999776482582,	9.569999694824219,	-0.0625,	-0.125,	-0.125
2.264623766407894,	-0.17000000178813934,	0.0,	9.539999961853027,	-0.0625,	-0.125,	-0.125
2.2702712072218785,	-0.17000000178813934,	0.0,	9.539999961853027,	0.0625,	-0.0625,	0.0
2.275918648035863,	-0.15000000596046448,	-0.009999999776482582,	9.550000190734863,	0.0625,	-0.0625,	0.0
2.281566088849848,	-0.1599999964237213,	0.009999999776482582,	9.529999732971191,	-0.0625,	-0.125,	-0.1875
2.2872135296638327,	-0.18000000715255737,	0.0,	9.569999694824219,	-0.0625,	-0.1875,	-0.0625
2.2928609704778173,	-0.18000000715255737,	0.0,	9.569999694824219,	-0.0625,	-0.1875,	-0.0625
2.2985084112918024,	-0.18000000715255737,	0.0,	9.539999961853027,	0.125,	-0.1875,	0.0625
2.304155852105787,	-0.1599999964237213,	0.0,	9.529999732971191,	0.125,	-0.1875,	0.0625
2.309803292919772,	-0.1599999964237213,	0.0,	9.529999732971191,	-0.0625,	-0.0625,	-0.0625
2.3154507337337566,	-0.17000000178813934,	0.0,	9.550000190734863,	-0.0625,	-0.0625,	-0.0625
2.3210981745477413,	-0.1599999964237213,	-0.009999999776482582,	9.550000190734863,	-0.0625,	-0.0625,	0.0625
2.3267456153617263,	-0.17000000178813934,	0.0,	9.539999961853027,	-0.0625,	0.0,	0.0
2.332393056175711,	-0.17000000178813934,	0.0,	9.539999961853027,	-0.0625,	0.0,	0.0
2.3380404969896955,	-0.18000000715255737,	-0.009999999776482582,	9.520000457763672,	-0.0625,	0.0625,	-0.125
2.3436879378036806,	-0.17000000178813934,	0.0,	9.539999961853027,	-0.0625,	0.0625,	-0.125
2.349335378617665,	-0.17000000178813934,	0.0,	9.539999961853027,	0.0,	-0.125,	0.0
2.35498281943165,	-0.17000000178813934,	0.0,	9.5600004196167,	0.0,	-0.125,	0.0
2.360630260245635,	-0.17000000178813934,	-0.009999999776482582,	9.529999732971191,	-0.0625,	0.0625,	-0.125
2.3662777010596194,	-0.17000000178813934,	-0.009999999776482582,	9.529999732971191,	-0.0625,	0.0625,	-0.125
2.3719251418736045,	-0.17000000178813934,	0.009999999776482582,	9.539999961853027,	-0.0625,	0.125,	-0.0625
2.377572582687589,	-0.17000000178813934,	0.009999999776482582,	9.550000190734863,	-0.125,	0.125,	-0.125
2.3832200235015737,	-0.18000000715255737,	0.0,	9.529999732971191,	-0.125,	0.125,	-0.125
2.3888674643155587,	-0.18000000715255737,	0.0,	9.529999732971191,	0.0625,	0.0,	-0.125
2.3945149051295433,	-0.1599999964237213,	-0.009999999776482582,	9.539999961853027,	0.0625,	0.0,	-0.125
2.4001623459435284,	-0.17000000178813934,	-0.019999999552965164,	9.539999961853027,	-0.0625,	-0.0625,	-0.0625
2.405809786757513,	-0.17000000178813934,	-0.019999999552965164,	9.539999961853027,	-0.0625,	-0.0625,	-0.0625
2.4114572275714976,	-0.1599999964237213,	-0.009999999776482582,	9.529999732971191,	-0.0625,	0.1875,	-0.125
2.4171046683854827,	-0.17000000178813934,	-0.009999999776482582,	9.550000190734863,	-0.0625,	0.1875,	-0.125
2.4227521091994673,	-0.17000000178813934,	-0.009999999776482582,	9.550000190734863,	0.125,	0.0,	0.0
2.428399550013452,	-0.1599999964237213,	-0.009999999776482582,	9.550000190734863,	0.0625,	0.0,	0.0
2.434046990827437,	-0.17000000178813934,	-0.009999999776482582,	9.550000190734863,	0.0625,	0.0,	0.0
2.4396944316414215,	-0.1599999964237213,	0.0,	9.550000190734863,	0.0,	0.0625,	-0.125
2.4453418724554066,	-0.1599999964237213,	0.0,	9.550000190734863,	0.0,	0.0625,	-0.125
2.450989313269391,	-0.17000000178813934,	-0.019999999552965164,	9.5600004196167,	0.125,	0.125,	-0.1875
2.456636754083376,	-0.17000000178813934,	0.0,	9.539999961853027,	0.125,	0.125,	-0.1875
2.462284194897361,	-0.17000000178813934,	0.0,	9.539999961853027,	-0.125,	0.0625,	0.0
2.4679316357113454,	-0.1599999964237213,	0.009999999776482582,	9.5600004196167,	0.0625,	-0.0625,	0.0
2.47357907652533,	-0.18000000715255737,	-0.009999999776482582,	9.539999961853027,	0.0625,	-0.0625,	0.0
2.479226517339315,	-0.18000000715255737,	-0.009999999776482582,	9.539999961853027,	0.0,	0.0,	0.0
2.4848739581532997,	-0.14000000059604645,	-0.009999999776482582,	9.550000190734863,	0.0,	0.0,	0.0
2.4905213989672847,	-0.17000000178813934,	-0.019999999552965164,	9.550000190734863,	0.0625,	0.125,	0.0
2.4961688397812694,	-0.17000000178813934,	0.0,	9.539999961853027,	0.0625,	0.125,	0.0
2.501816280595254,	-0.17000000178813934,	0.0,	9.539999961853027,	-0.125,	0.0,	-0.0625
2.507463721409239,	-0.15000000596046448,	0.0,	9.550000190734863,	-0.125,	0.0,	-0.0625
2.5131111622232236,	-0.1599999964237213,	-0.009999999776482582,	9.550000190734863,	0.125,	-0.125,	-0.125
2.518758603037208,	-0.1599999964237213,	-0.009999999776482582,	9.550000190734863,	-0.0625,	-0.1875,	-0.0625
2.5244060438511933,	-0.17000000178813934,	-0.009999999776482582,	9.550000190734863,	-0.0625,	-0.1875,	-0.0625
2.530053484665178,	-0.1899999976158142,	0.0,	9.520000457763672,	0.0625,	-0.125,	0.0
2.535700925479163,	-0.17000000178813934,	0.0,	9.539999961853027,	0.0625,	-0.125,	0.0
2.5413483662931475,	-0.17000000178813934,	0.0,	9.539999961853027,	0.0,	0.0625,	-0.0625
2.546995807107132,	-0.18000000715255737,	0.0,	9.550000190734863,	0.0,	0.0625,	-0.0625
2.552643247921117,	-0.17000000178813934,	0.0,	9.510000228881836,	0.0,	0.0625,	-0.125
2.558290688735102,	-0.17000000178813934,	0.0,	9.510000228881836,	-0.1875,	-0.1875,	0.0
2.5639381295490864,	-0.1899999976158142,	0.009999999776482582,	9.520000457763672,	-0.1875,	-0.1875,	0.0
2.5695855703630714,	-0.17000000178813934,	0.0,	9.550000190734863,	0.0,	-0.0625,	0.0625
2.575233011177056,	-0.17000000178813934,	0.0,	9.550000190734863,	0.0,	-0.0625,	0.0625
2.580880451991041,	-0.1899999976158142,	0.0,	9.550000190734863,	-0.0625,	-0.0625,	0.0
2.5865278928050257,	-0.18000000715255737,	0.0,	9.550000190734863,	-0.0625,	-0.0625,	0.0
2.5921753336190103,	-0.18000000715255737,	0.0,	9.539999961853027,	0.0625,	0.0,	-0.125
2.5978227744329954,	-0.18000000715255737,	0.0,	9.539999961853027,	0.0625,	0.0,	-0.125
2.60347021524698,	-0.17000000178813934,	0.0,	9.529999732971191,	-0.0625,	-0.0625,	-0.0625
2.6091176560609646,	-0.17000000178813934,	-0.029999999329447746,	9.539999961853027,	0.0625,	-0.0625,	-0.1875
2.6147650968749496,	-0.17000000178813934,	-0.029999999329447746,	9.539999961853027,	0.0625,	-0.0625,	-0.1875
2.6204125376889342,	-0.1899999976158142,	-0.019999999552965164,	9.550000190734863,	-0.125,	0.0625,	-0.125
2.6260599785029193,	-0.17000000178813934,	-0.009999999776482582,	9.539999961853027,	-0.125,	0.0625,	-0.125
2.631707419316904,	-0.17000000178813934,	-0.009999999776482582,	9.539999961853027,	-0.0625,	0.0625,	-0.125
2.6373548601308885,	-0.17000000178813934,	0.009999999776482582,	9.550000190734863,	-0.0625,	0.0625,	-0.125
2.6430023009448735,	-0.18000000715255737,	-0.009999999776482582,	9.5600004196167,	-0.0625,	0.0,	0.0
2.648649741758858,	-0.17000000178813934,	0.0,	9.550000190734863,	0.0,	-0.125,	0.0
2.6542971825728428,	-0.17000000178813934,	0.0,	9.550000190734863,	0.0,	-0.125,	0.0
2.659944623386828,	-0.17000000178813934,	0.0,	9.529999732971191,	0.0625,	0.0,	-0.1875
2.6655920642008124,	-0.17000000178813934,	-0.009999999776482582,	9.539999961853027,	0.0625,	0.0,	-0.1875
2.6712395050147975,	-0.17000000178813934,	-0.009999999776482582,	9.539999961853027,	-0.125,	0.0,	0.0
2.676886945828782,	-0.17000000178813934,	0.0,	9.5600004196167,	-0.125,	0.0,	0.0
2.6825343866427667,	-0.17000000178813934,	-0.009999999776482582,	9.539999961853027,	-0.0625,	0.25,	-0.1875
2.6881818274567517,	-0.17000000178813934,	-0.009999999776482582,	9.539999961853027,	-0.0625,	0.25,	-0.1875
2.6938292682707363,	-0.18000000715255737,	-0.019999999552965164,	9.550000190734863,	-0.0625,	0.0625,	-0.1875
2.699476709084721,	-0.1599999964237213,	-0.009999999776482582,	9.5600004196167,	0.0,	-0.0625,	-0.0625
2.705124149898706,	-0.18000000715255737,	-0.009999999776482582,	9.539999961853027,	0.0,	-0.0625,	-0.0625
2.7107715907126906,	-0.18000000715255737,	-0.009999999776482582,	9.539999961853027,	0.0625,	0.0625,	-0.1875
2.7164190315266756,	-0.18000000715255737,	-0.009999999776482582,	9.539999961853027,	0.0625,	0.0625,	-0.1875
2.7220664723406602,	-0.20000000298023224,	0.0,	9.529999732971191,	0.0,	0.0,	-0.125
2.727713913154645,	-0.20000000298023224,	0.0,	9.529999732971191,	0.0,	0.0,	-0.125
2.73336135396863,	-0.1599999964237213,	0.0,	9.539999961853027,	-0.1875,	0.125,	0.0
2.7390087947826145,	-0.1599999964237213,	-0.019999999552965164,	9.520000457763672,	-0.1875,	0.125,	0.0
2.744656235596599,	-0.1599999964237213,	-0.019999999552965164,	9.520000457763672,	0.0,	0.1875,	-0.0625
2.750303676410584,	-0.1599999964237213,	0.0,	9.550000190734863,	0.0,	-0.0625,	-0.125
2.7559511172245688,	-0.17000000178813934,	0.009999999776482582,	9.539999961853027,	0.0,	-0.0625,	-0.125
2.761598558038554,	-0.18000000715255737,	0.009999999776482582,	9.529999732971191,	-0.0625,	-0.1875,	0.0
2.7672459988525384,	-0.18000000715255737,	0.009999999776482582,	9.529999732971191,	-0.0625,	-0.1875,	0.0
2.772893439666523,	-0.17000000178813934,	0.0,	9.539999961853027,	0.0625,	0.0625,	-0.25
2.778540880480508,	-0.17000000178813934,	0.0,	9.539999961853027,	0.0625,	0.0625,	-0.25
2.7841883212944927,	-0.17000000178813934,	0.0,	9.539999961853027,	0.0,	0.0,	-0.0625
2.7898357621084773,	-0.18000000715255737,	-0.009999999776482582,	9.539999961853027,	0.0625,	-0.125,	-0.0625
2.7954832029224623,	-0.20000000298023224,	0.0,	9.529999732971191,	0.0625,	-0.125,	-0.0625
2.801130643736447,	-0.20000000298023224,	0.0,	9.529999732971191,	-0.0625,	-0.1875,	-0.0625
2.806778084550432,	-0.1599999964237213,	0.0,	9.539999961853027,	-0.0625,	-0.1875,	-0.0625
2.8124255253644166,	-0.18000000715255737,	-0.009999999776482582,	9.529999732971191,	-0.0625,	0.0,	-0.0625
2.818072966178401,	-0.18000000715255737,	-0.009999999776482582,	9.529999732971191,	-0.0625,	0.0,	-0.0625
2.8237204069923862,	-0.18000000715255737,	-0.009999999776482582,	9.529999732971191,	0.0,	0.0625,	-0.125
2.829367847806371,	-0.17000000178813934,	-0.009999999776482582,	9.5,	0.0,	0.0625,	-0.125
2.8350152886203555,	-0.17000000178813934,	0.0,	9.550000190734863,	-0.125,	0.0,	-0.125
2.8406627294343405,	-0.17000000178813934,	0.0,	9.550000190734863,	0.0,	-0.0625,	-0.1875
2.846310170248325,	-0.1899999976158142,	-0.019999999552965164,	9.529999732971191,	0.0,	-0.0625,	-0.1875
2.85195761106231,	-0.17000000178813934,	0.0,	9.569999694824219,	0.0,	0.0,	-0.0625
2.8576050518762948,	-0.17000000178813934,	0.0,	9.569999694824219,	0.0,	0.0,	-0.0625
2.8632524926902794,	-0.17000000178813934,	-0.009999999776482582,	9.529999732971191,	-0.125,	-0.0625,	0.0625
2.8688999335042644,	-0.17000000178813934,	0.0,	9.5600004196167,	-0.125,	-0.0625,	0.0625
2.874547374318249,	-0.18000000715255737,	0.0,	9.550000190734863,	-0.0625,	-0.125,	-0.125
2.8801948151322336,	-0.18000000715255737,	0.0,	9.550000190734863,	-0.0625,	0.0,	-0.0625
2.8858422559462187,	-0.18000000715255737,	0.0,	9.550000190734863,	-0.0625,	0.0,	-0.0625
2.8914896967602033,	-0.18000000715255737,	-0.009999999776482582,	9.539999961853027,	0.0625,	-0.0625,	-0.0625
2.8971371375741883,	-0.18000000715255737,	-0.009999999776482582,	9.539999961853027,	0.0625,	-0.0625,	-0.0625
2.902784578388173,	-0.18000000715255737,	0.0,	9.550000190734863,	0.0,	0.125,	0.0
2.9084320192021575,	-0.1899999976158142,	0.0,	9.5600004196167,	0.0,	0.125,	0.0
2.9140794600161426,	-0.18000000715255737,	-0.009999999776482582,	9.529999732971191,	0.0625,	0.0,	-0.0625
2.919726900830127,	-0.18000000715255737,	-0.009999999776482582,	9.529999732971191,	0.0625,	0.0,	-0.0625
2.925374341644112,	-0.1599999964237213,	0.0,	9.5600004196167,	0.0625,	-0.125,	-0.0625
2.931021782458097,	-0.18000000715255737,	0.0,	9.529999732971191,	0.0,	-0.0625,	-0.125
2.9366692232720815,	-0.18000000715255737,	0.0,	9.529999732971191,	0.0,	-0.0625,	-0.125
2.9423166640860665,	-0.18000000715255737,	-0.009999999776482582,	9.539999961853027,	0.0,	-0.125,	-0.125
2.947964104900051,	-0.1599999964237213,	0.0,	9.5600004196167,	0.0,	-0.125,	-0.125
2.9536115457140357,	-0.1599999964237213,	0.0,	9.5600004196167,	0.0625,	-0.0625,	0.0
2.9592589865280208,	-0.18000000715255737,	0.009999999776482582,	9.529999732971191,	0.0625,	-0.0625,	0.0
2.9649064273420054,	-0.1599999964237213,	0.0,	9.539999961853027,	0.0,	0.0625,	-0.1875
2.97055386815599,	-0.1899999976158142,	-0.009999999776482582,	9.539999961853027,	-0.0625,	0.0625,	-0.1875
2.976201308969975,	-0.1899999976158142,	-0.009999999776482582,	9.539999961853027,	-0.0625,	0.0625,	-0.1875
2.9818487497839596,	-0.1599999964237213,	-0.019999999552965164,	9.579999923706055,	0.0625,	-0.0625,	-0.0625
2.9874961905979447,	-0.17000000178813934,	0.0,	9.579999923706055,	0.0625,	-0.0625,	-0.0625
2.9931436314119293,	-0.17000000178813934,	0.0,	9.579999923706055,	-0.0625,	-0.0625,	-0.125
2.998791072225914,	-0.17000000178813934,	-0.009999999776482582,	9.550000190734863,	-0.0625,	-0.0625,	-0.125
3.004438513039899,	-0.1599999964237213,	-0.019999999552965164,	9.569999694824219,	0.0625,	-0.0625,	-0.1875
3.0100859538538836,	-0.17000000178813934,	-0.009999999776482582,	9.520000457763672,	0.0625,	-0.0625,	-0.1875
3.015733394667868,	-0.17000000178813934,	-0.009999999776482582,	9.520000457763672,	-0.0625,	-0.0625,	0.0
3.021380835481853,	-0.18000000715255737,	0.0,	9.529999732971191,	-0.0625,	0.0,	-0.125
3.027028276295838,	-0.17000000178813934,	0.0,	9.569999694824219,	-0.0625,	0.0,	-0.125
3.032675717109823,	-0.17000000178813934,	0.0,	9.569999694824219,	-0.0625,	-0.1875,	-0.0625
3.0383231579238075,	-0.18000000715255737,	0.009999999776482582,	9.550000190734863,	-0.0625,	-0.1875,	-0.0625
3.043970598737792,	-0.17000000178813934,	0.0,	9.529999732971191,	-0.125,	0.1875,	-0.0625
3.049618039551777,	-0.17000000178813934,	0.0,	9.529999732971191,	-0.125,	0.1875,	-0.0625
3.0552654803657617,	-0.17000000178813934,	0.0,	9.569999694824219,	-0.0625,	-0.125,	-0.0625
3.0609129211797463,	-0.1599999964237213,	-0.009999999776482582,	9.550000190734863,	-0.0625,	-0.125,	-0.0625
3.0665603619937314,	-0.1599999964237213,	-0.009999999776482582,	9.550000190734863,	-0.0625,	0.0,	-0.25
3.072207802807716,	-0.18000000715255737,	-0.029999999329447746,	9.539999961853027,	0.0,	-0.0625,	-0.1875
3.077855243621701,	-0.17000000178813934,	0.0,	9.539999961853027,	0.0,	-0.0625,	-0.1875
3.0835026844356856,	-0.18000000715255737,	0.0,	9.569999694824219,	0.0,	0.0,	-0.125
3.0891501252496703,	-0.18000000715255737,	0.0,	9.569999694824219,	0.0,	0.0,	-0.125
3.0947975660636553,	-0.17000000178813934,	0.0,	9.550000190734863,	0.0625,	-0.25,	-0.125
3.10044500687764,	-0.1899999976158142,	-0.009999999776482582,	9.569999694824219,	0.0625,	-0.25,	-0.125
3.1060924476916245,	-0.1899999976158142,	-0.009999999776482582,	9.569999694824219,	0.0625,	-0.125,	-0.0625
3.1117398885056096,	-0.1599999964237213,	-0.009999999776482582,	9.550000190734863,	0.0625,	-0.1875,	0.0
3.117387329319594,	-0.17000000178813934,	0.0,	9.529999732971191,	0.0625,	-0.1875,	0.0
3.123034770133579,	-0.17000000178813934,	0.0,	9.529999732971191,	-0.0625,	0.0625,	0.0
3.128682210947564,	-0.18000000715255737,	0.0,	9.569999694824219,	-0.0625,	0.0625,	0.0
3.1343296517615484,	-0.1899999976158142,	0.0,	9.539999961853027,	0.0,	0.0,	0.0
3.1399770925755335,	-0.1899999976158142,	0.0,	9.529999732971191,	0.0,	0.0,	0.0
3.145624533389518,	-0.1899999976158142,	0.0,	9.529999732971191,	-0.0625,	-0.0625,	-0.1875
3.1512719742035027,	-0.1599999964237213,	0.0,	9.550000190734863,	-0.0625,	-0.0625,	-0.125
3.1569194150174877,	-0.17000000178813934,	0.0,	9.529999732971191,	-0.0625,	-0.0625,	-0.125
3.1625668558314723,	-0.17000000178813934,	0.0,	9.529999732971191,	0.125,	-0.125,	-0.0625
3.1682142966454574,	-0.17000000178813934,	0.0,	9.539999961853027,	0.125,	-0.125,	-0.0625
3.173861737459442,	-0.1599999964237213,	-0.009999999776482582,	9.569999694824219,	0.0,	0.0,	-0.125
3.1795091782734266,	-0.18000000715255737,	0.0,	9.539999961853027,	0.0,	0.0,	-0.125
3.1851566190874117,	-0.18000000715255737,	0.0,	9.539999961853027,	0.0,	0.125,	-0.125
3.1908040599013963,	-0.18000000715255737,	0.0,	9.520000457763672,	0.0,	0.125,	-0.125
3.196451500715381,	-0.14000000059604645,	0.0,	9.5600004196167,	0.0,	-0.1875,	0.0
3.202098941529366,	-0.14000000059604645,	0.0,	9.5600004196167,	0.0,	0.0,	0.0
3.2077463823433505,	-0.1899999976158142,	-0.009999999776482582,	9.529999732971191,	0.0,	0.0,	0.0
3.2133938231573356,	-0.18000000715255737,	0.009999999776482582,	9.529999732971191,	0.0625,	0.0625,	-0.0625
3.21904126397132,	-0.18000000715255737,	0.009999999776482582,	9.529999732971191,	0.0625,	0.0625,	-0.0625
3.224688704785305,	-0.17000000178813934,	0.0,	9.539999961853027,	0.0,	-0.0625,	-0.125
3.23033614559929,	-0.1899999976158142,	0.0,	9.529999732971191,	0.0,	-0.0625,	-0.125
3.2359835864132744,	-0.18000000715255737,	0.0,	9.539999961853027,	-0.0625,	-0.0625,	-0.0625
3.241631027227259,	-0.18000000715255737,	0.0,	9.539999961853027,	-0.0625,	-0.0625,	-0.0625
3.247278468041244,	-0.17000000178813934,	0.0,	9.539999961853027,	-0.0625,	0.0625,	0.0
3.2529259088552287,	-0.1899999976158142,	-0.009999999776482582,	9.539999961853027,	0.0,	0.125,	-0.125
3.2585733496692137,	-0.1899999976158142,	-0.009999999776482582,	9.539999961853027,	0.0,	0.125,	-0.125
3.2642207904831984,	-0.1599999964237213,	0.0,	9.550000190734863,	0.0,	0.125,	-0.0625
3.269868231297183,	-0.17000000178813934,	-0.019999999552965164,	9.5600004196167,	0.0,	0.125,	-0.0625
3.275515672111168,	-0.17000000178813934,	-0.019999999552965164,	9.5600004196167,	-0.0625,	0.0,	-0.0625
3.2811631129251526,	-0.1599999964237213,	0.0,	9.539999961853027,	-0.0625,	0.0,	-0.0625
3.286810553739137,	-0.17000000178813934,	-0.009999999776482582,	9.520000457763672,	-0.125,	-0.0625,	-0.125
3.2924579945531223,	-0.1599999964237213,	-0.009999999776482582,	9.539999961853027,	0.0625,	-0.0625,	-0.0625
3.298105435367107,	-0.1599999964237213,	-0.009999999776482582,	9.539999961853027,	0.0625,	-0.0625,	-0.0625
3.303752876181092,	-0.1599999964237213,	0.0,	9.529999732971191,	0.0,	-0.0625,	-0.0625
3.3094003169950765,	-0.17000000178813934,	-0.009999999776482582,	9.539999961853027,	0.0,	-0.0625,	-0.0625
3.315047757809061,	-0.17000000178813934,	-0.009999999776482582,	9.539999961853027,	-0.0625,	-0.0625,	0.0625
3.320695198623046,	-0.15000000596046448,	0.0,	9.550000190734863,	-0.0625,	-0.0625,	0.0625
3.326342639437031,	-0.20000000298023224,	0.0,	9.550000190734863,	-0.0625,	0.0,	-0.0625
3.3319900802510154,	-0.20000000298023224,	0.0,	9.550000190734863,	-0.0625,	0.0,	-0.0625
3.3376375210650004,	-0.18000000715255737,	-0.009999999776482582,	9.550000190734863,	-0.0625,	-0.0625,	-0.0625
3.343284961878985,	-0.17000000178813934,	0.0,	9.539999961853027,	-0.25,	0.0625,	0.0
3.34893240269297,	-0.1599999964237213,	0.0,	9.529999732971191,	-0.25,	0.0625,	0.0
3.3545798435069547,	-0.1599999964237213,	0.0,	9.529999732971191,	-0.125,	0.0625,	-0.125
3.3602272843209393,	-0.1899999976158142,	0.0,	9.550000190734863,	-0.125,	0.0625,	-0.125
3.3658747251349244,	-0.17000000178813934,	-0.019999999552965164,	9.550000190734863,	-0.0625,	-0.0625,	-0.0625
3.371522165948909,	-0.17000000178813934,	-0.019999999552965164,	9.550000190734863,	-0.0625,	-0.0625,	-0.0625
3.3771696067628936,	-0.17000000178813934,	0.0,	9.529999732971191,	-0.0625,	-0.0625,	0.0
3.3828170475768786,	-0.1599999964237213,	0.0,	9.539999961853027,	0.0625,	0.0625,	-0.125
3.3884644883908632,	-0.17000000178813934,	0.0,	9.539999961853027,	0.0625,	0.0625,	-0.125
3.3941119292048483,	-0.17000000178813934,	0.0,	9.539999961853027,	0.0,	-0.125,	-0.125
3.399759370018833,	-0.1599999964237213,	0.0,	9.5600004196167,	0.0,	-0.125,	-0.125
3.4054068108328175,	-0.17000000178813934,	0.019999999552965164,	9.550000190734863,	0.0,	-0.1875,	0.0
3.4110542516468025,	-0.17000000178813934,	0.019999999552965164,	9.550000190734863,	0.0,	-0.1875,	0.0
3.416701692460787,	-0.18000000715255737,	-0.009999999776482582,	9.539999961853027,	-0.0625,	0.0,	-0.125
3.4223491332747717,	-0.17000000178813934,	-0.009999999776482582,	9.5600004196167,	0.0625,	0.0,	-0.125
3.427996574088757,	-0.17000000178813934,	-0.009999999776482582,	9.5600004196167,	0.0625,	0.0,	-0.125
3.4336440149027414,	-0.18000000715255737,	0.0,	9.5600004196167,	0.0625,	-0.25,	-0.1875
3.4392914557167265,	-0.1899999976158142,	0.0,	9.539999961853027,	0.0625,	-0.25,	-0.1875
3.444938896530711,	-0.17000000178813934,	-0.009999999776482582,	9.569999694824219,	0.0625,	0.0,	0.0
3.4505863373446957,	-0.17000000178813934,	-0.009999999776482582,	9.569999694824219,	0.0625,	0.0,	0.0
3.4562337781586807,	-0.18000000715255737,	-0.03999999910593033,	9.550000190734863,	-0.0625,	0.0,	-0.25
3.4618812189726653,	-0.18000000715255737,	-0.019999999552965164,	9.550000190734863,	-0.0625,	0.0,	-0.25
3.46752865978665,	-0.18000000715255737,	-0.019999999552965164,	9.550000190734863,	-0.125,	0.125,	-0.0625
3.473176100600635,	-0.17000000178813934,	-0.029999999329447746,	9.539999961853027,	0.0625,	-0.0625,	0.0
3.4788235414146196,	-0.18000000715255737,	-0.009999999776482582,	9.539999961853027,	0.0625,	-0.0625,	0.0
3.4844709822286046,	-0.17000000178813934,	0.0,	9.550000190734863,	0.0,	-0.0625,	-0.125
3.4901184230425892,	-0.17000000178813934,	0.0,	9.550000190734863,	0.0,	-0.0625,	-0.125
3.495765863856574,	-0.17000000178813934,	0.0,	9.520000457763672,	0.0,	0.0625,	-0.1875
3.501413304670559,	-0.1599999964237213,	-0.009999999776482582,	9.539999961853027,	0.0,	0.0625,	-0.1875
3.5070607454845435,	-0.1599999964237213,	-0.009999999776482582,	9.539999961853027,	0.0,	-0.125,	0.0
3.512708186298528,	-0.17000000178813934,	0.0,	9.539999961853027,	-0.0625,	0.0,	-0.0625
3.518355627112513,	-0.18000000715255737,	0.0,	9.539999961853027,	-0.0625,	0.0,	-0.0625
3.5240030679264978,	-0.18000000715255737,	0.0,	9.539999961853027,	0.0,	0.0,	-0.1875
3.529650508740483,	-0.18000000715255737,	0.0,	9.529999732971191,	0.0,	0.0,	-0.1875
3.5352979495544674,	-0.1599999964237213,	-0.019999999552965164,	9.539999961853027,	0.0625,	0.0625,	-0.125
3.540945390368452,	-0.1599999964237213,	0.0,	9.539999961853027,	0.0625,	0.0625,	-0.125
3.546592831182437,	-0.1599999964237213,	0.0,	9.539999961853027,	0.0,	0.0,	0.0
3.5522402719964217,	-0.18000000715255737,	-0.029999999329447746,	9.569999694824219,	0.0,	0.0,	0.0
3.5578877128104063,	-0.17000000178813934,	-0.009999999776482582,	9.550000190734863,	0.0,	-0.25,	0.0
3.5635351536243913,	-0.17000000178813934,	-0.009999999776482582,	9.550000190734863,	0.0,	0.0625,	-0.1875
3.569182594438376,	-0.17000000178813934,	-0.009999999776482582,	9.550000190734863,	0.0,	0.0625,	-0.1875
3.574830035252361,	-0.1899999976158142,	0.0,	9.550000190734863,	0.0,	0.0625,	-0.0625
3.5804774760663456,	-0.1899999976158142,	0.0,	9.550000190734863,	0.0,	0.0625,	-0.0625
3.58612491688033,	-0.17000000178813934,	0.0,	9.539999961853027,	0.0625,	0.0,	-0.1875
3.5917723576943152,	-0.1899999976158142,	0.0,	9.539999961853027,	0.0625,	0.0,	-0.1875
3.5974197985083,	-0.1899999976158142,	0.009999999776482582,	9.510000228881836,	0.0625,	-0.0625,	-0.0625
3.6030672393222845,	-0.1899999976158142,	0.009999999776482582,	9.510000228881836,	0.0625,	-0.0625,	-0.0625
3.6087146801362695,	-0.18000000715255737,	0.0,	9.550000190734863,	0.0625,	-0.125,	-0.0625
3.614362120950254,	-0.1899999976158142,	0.0,	9.550000190734863,	0.0625,	-0.0625,	-0.1875
3.620009561764239,	-0.1899999976158142,	0.0,	9.550000190734863,	0.0625,	-0.0625,	-0.1875
3.6256570025782238,	-0.18000000715255737,	0.0,	9.539999961853027,	0.0625,	0.125,	0.0
3.6313044433922084,	-0.15000000596046448,	0.009999999776482582,	9.539999961853027,	0.0625,	0.125,	0.0
3.6369518842061934,	-0.15000000596046448,	0.009999999776482582,	9.539999961853027,	0.125,	0.0,	-0.125
3.642599325020178,	-0.18000000715255737,	-0.029999999329447746,	9.5600004196167,	0.125,	0.0,	-0.125
3.6482467658341626,	-0.17000000178813934,	0.0,	9.550000190734863,	0.0,	-0.0625,	-0.0625
3.6538942066481477,	-0.17000000178813934,	-0.009999999776482582,	9.550000190734863,	-0.0625,	0.0625,	-0.0625
3.6595416474621323,	-0.17000000178813934,	-0.009999999776482582,	9.550000190734863,	-0.0625,	0.0625,	-0.0625
3.6651890882761173,	-0.18000000715255737,	0.0,	9.5600004196167,	0.0,	-0.25,	-0.1875
3.670836529090102,	-0.17000000178813934,	-0.009999999776482582,	9.550000190734863,	0.0,	-0.25,	-0.1875
3.6764839699040865,	-0.17000000178813934,	-0.009999999776482582,	9.550000190734863,	-0.125,	0.0625,	0.0
3.6821314107180716,	-0.1899999976158142,	0.0,	9.539999961853027,	-0.125,	0.0625,	0.0
3.687778851532056,	-0.1899999976158142,	0.0,	9.550000190734863,	-0.0625,	-0.125,	-0.0625
3.693426292346041,	-0.17000000178813934,	0.019999999552965164,	9.5600004196167,	0.0,	0.1875,	-0.1875
3.699073733160026,	-0.17000000178813934,	0.019999999552965164,	9.5600004196167,	0.0,	0.1875,	-0.1875
3.7047211739740105,	-0.17000000178813934,	0.0,	9.539999961853027,	0.0,	0.0625,	-0.125
3.7103686147879955,	-0.18000000715255737,	0.0,	9.5600004196167,	0.0,	0.0625,	-0.125
3.71601605560198,	-0.18000000715255737,	0.0,	9.5600004196167,	-0.125,	0.125,	-0.0625
3.7216634964159647,	-0.17000000178813934,	0.0,	9.5600004196167,	-0.125,	0.125,	-0.0625
3.7273109372299498,	-0.17000000178813934,	0.0,	9.569999694824219,	0.125,	-0.0625,	-0.0625
3.7329583780439344,	-0.17000000178813934,	0.0,	9.569999694824219,	0.125,	-0.0625,	-0.0625
3.738605818857919,	-0.18000000715255737,	-0.009999999776482582,	9.5600004196167,	-0.0625,	-0.25,	-0.125
3.744253259671904,	-0.18000000715255737,	-0.029999999329447746,	9.539999961853027,	0.0,	0.0,	-0.0625
3.7499007004858886,	-0.15000000596046448,	-0.019999999552965164,	9.539999961853027,	0.0,	0.0,	-0.0625
3.7555481412998737,	-0.15000000596046448,	-0.019999999552965164,	9.539999961853027,	0.0,	0.0,	-0.125
3.7611955821138583,	-0.17000000178813934,	-0.009999999776482582,	9.550000190734863,	0.0,	0.0,	-0.125
3.766843022927843,	-0.17000000178813934,	-0.019999999552965164,	9.539999961853027,	0.125,	-0.0625,	-0.0625
3.772490463741828,	-0.17000000178813934,	-0.019999999552965164,	9.539999961853027,	0.125,	-0.0625,	-0.0625
3.7781379045558126,	-0.1899999976158142,	0.0,	9.5600004196167,	0.0625,	-0.0625,	-0.0625
3.783785345369797,	-0.18000000715255737,	0.0,	9.5600004196167,	0.0625,	-0.0625,	-0.0625
3.789432786183782,	-0.18000000715255737,	0.0,	9.5600004196167,	0.0625,	0.0625,	-0.0625
3.795080226997767,	-0.17000000178813934,	0.009999999776482582,	9.539999961853027,	0.0,	0.0,	-0.125
3.800727667811752,	-0.18000000715255737,	0.0,	9.539999961853027,	0.0,	0.0,	-0.125
3.8063751086257365,	-0.17000000178813934,	-0.009999999776482582,	9.550000190734863,	0.125,	0.125,	-0.125
3.812022549439721,	-0.17000000178813934,	-0.009999999776482582,	9.550000190734863,	0.125,	0.125,	-0.125
3.817669990253706,	-0.1599999964237213,	-0.009999999776482582,	9.539999961853027,	0.0625,	-0.0625,	-0.125
3.8233174310676907,	-0.18000000715255737,	0.0,	9.550000190734863,	0.0625,	-0.0625,	-0.125
3.8289648718816753,	-0.18000000715255737,	0.0,	9.550000190734863,	-0.125,	-0.0625,	0.0
3.8346123126956604,	-0.18000000715255737,	0.0,	9.539999961853027,	0.0625,	-0.125,	0.0
3.840259753509645,	-0.17000000178813934,	-0.009999999776482582,	9.5600004196167,	0.0625,	-0.125,	0.0
3.84590719432363,	-0.17000000178813934,	-0.009999999776482582,	9.5600004196167,	0.0625,	0.0,	-0.0625
3.8515546351376146,	-0.17000000178813934,	0.0,	9.539999961853027,	0.0625,	0.0,	-0.0625
3.8572020759515993,	-0.1599999964237213,	-0.03999999910593033,	9.539999961853027,	-0.0625,	-0.1875,	-0.125
3.8628495167655843,	-0.18000000715255737,	0.0,	9.550000190734863,	-0.0625,	-0.1875,	-0.125
3.868496957579569,	-0.18000000715255737,	0.0,	9.550000190734863,	0.0625,	0.125,	-0.0625
3.8741443983935535,	-0.18000000715255737,	0.0,	9.520000457763672,	0.0625,	0.0625,	-0.0625
3.8797918392075386,	-0.18000000715255737,	0.009999999776482582,	9.550000190734863,	0.0625,	0.0625,	-0.0625
3.885439280021523,	-0.18000000715255737,	0.009999999776482582,	9.550000190734863,	0.0625,	-0.0625,	-0.125
3.891086720835508,	-0.18000000715255737,	-0.009999999776482582,	9.539999961853027,	0.0625,	-0.0625,	-0.125
3.896734161649493,	-0.18000000715255737,	0.0,	9.520000457763672,	0.0,	0.0625,	-0.0625
3.9023816024634774,	-0.1899999976158142,	0.0,	9.529999732971191,	0.0,	0.0625,	-0.0625
3.9080290432774625,	-0.1899999976158142,	0.0,	9.529999732971191,	-0.0625,	0.0,	-0.0625
3.913676484091447,	-0.17000000178813934,	-0.009999999776482582,	9.5600004196167,	-0.0625,	0.0,	-0.0625
3.9193239249054317,	-0.18000000715255737,	-0.009999999776482582,	9.520000457763672,	0.125,	0.0,	0.0
3.9249713657194167,	-0.18000000715255737,	-0.009999999776482582,	9.520000457763672,	0.0625,	0.0625,	0.0
3.9306188065334013,	-0.1599999964237213,	0.0,	9.569999694824219,	0.0625,	0.0625,	0.0
3.9362662473473864,	-0.18000000715255737,	0.0,	9.5600004196167,	0.0,	0.125,	-0.0625
3.941913688161371,	-0.18000000715255737,	0.0,	9.5600004196167,	0.0,	0.125,	-0.0625
3.9475611289753556,	-0.18000000715255737,	0.0,	9.550000190734863,	0.0625,	-0.25,	-0.125
3.9532085697893407,	-0.17000000178813934,	-0.019999999552965164,	9.5600004196167,	0.0625,	-0.25,	-0.125
3.9588560106033253,	-0.17000000178813934,	0.0,	9.529999732971191,	0.0,	-0.0625,	-0.0625
3.96450345141731,	-0.17000000178813934,	0.0,	9.529999732971191,	0.0625,	-0.125,	-0.0625
3.970150892231295,	-0.18000000715255737,	0.0,	9.550000190734863,	0.0625,	-0.125,	-0.0625
3.9757983330452795,	-0.1899999976158142,	0.0,	9.539999961853027,	0.125,	-0.125,	-0.125
3.9814457738592646,	-0.1899999976158142,	0.0,	9.539999961853027,	0.125,	-0.125,	-0.125
3.987093214673249,	-0.1899999976158142,	-0.009999999776482582,	9.529999732971191,	-0.1875,	-0.1875,	-0.125
3.992740655487234,	-0.17000000178813934,	0.0,	9.539999961853027,	-0.1875,	-0.1875,	-0.125
3.998388096301219,	-0.15000000596046448,	0.0,	9.539999961853027,	-0.0625,	0.0,	-0.0625
4.004035537115204,	-0.15000000596046448,	0.0,	9.539999961853027,	-0.0625,	0.0,	-0.0625
4.009682977929188,	-0.1599999964237213,	-0.009999999776482582,	9.539999961853027,	0.0625,	0.0,	-0.125
4.015330418743173,	-0.1599999964237213,	-0.009999999776482582,	9.550000190734863,	0.0,	-0.0625,	-0.0625
4.020977859557158,	-0.1599999964237213,	-0.009999999776482582,	9.550000190734863,	0.0,	-0.0625,	-0.0625
4.026625300371142,	-0.17000000178813934,	-0.029999999329447746,	9.550000190734863,	0.125,	-0.125,	-0.1875
4.032272741185127,	-0.18000000715255737,	-0.019999999552965164,	9.539999961853027,	0.125,	-0.125,	-0.1875
4.037920181999112,	-0.18000000715255737,	-0.019999999552965164,	9.539999961853027,	0.0,	-0.125,	-0.125
4.043567622813097,	-0.18000000715255737,	-0.009999999776482582,	9.529999732971191,	0.0,	-0.125,	-0.125
4.049215063627082,	-0.1599999964237213,	-0.029999999329447746,	9.550000190734863,	-0.0625,	-0.0625,	-0.0625
4.054862504441067,	-0.17000000178813934,	0.0,	9.569999694824219,	-0.125,	0.0,	-0.125
4.060509945255051,	-0.17000000178813934,	0.0,	9.569999694824219,	-0.125,	0.0,	-0.125
4.066157386069036,	-0.17000000178813934,	0.0,	9.539999961853027,	0.0625,	-0.1875,	-0.0625
4.071804826883021,	-0.17000000178813934,	0.0,	9.550000190734863,	0.0625,	-0.1875,	-0.0625
4.077452267697005,	-0.17000000178813934,	0.0,	9.550000190734863,	-0.0625,	0.0,	-0.125
4.08309970851099,	-0.18000000715255737,	0.0,	9.5600004196167,	-0.0625,	0.0,	-0.125
4.088747149324975,	-0.18000000715255737,	0.0,	9.5600004196167,	-0.125,	0.0625,	-0.0625
4.09439459013896,	-0.18000000715255737,	0.0,	9.5600004196167,	-0.125,	0.0625,	-0.0625
4.100042030952944,	-0.17000000178813934,	0.009999999776482582,	9.529999732971191,	-0.0625,	0.0,	-0.125
4.105689471766929,	-0.17000000178813934,	-0.009999999776482582,	9.539999961853027,	-0.125,	0.0,	-0.0625
4.1113369125809145,	-0.18000000715255737,	-0.009999999776482582,	9.539999961853027,	-0.125,	0.0,	-0.0625
4.116984353394899,	-0.18000000715255737,	-0.009999999776482582,	9.539999961853027,	0.0625,	0.0,	0.0
4.122631794208884,	-0.1599999964237213,	-0.019999999552965164,	9.529999732971191,	0.0625,	0.0,	0.0
4.128279235022869,	-0.17000000178813934,	-0.009999999776482582,	9.5600004196167,	0.0625,	0.0,	-0.125
4.133926675836853,	-0.17000000178813934,	-0.009999999776482582,	9.5600004196167,	0.0625,	0.0,	-0.125
4.139574116650838,	-0.18000000715255737,	0.0,	9.550000190734863,	0.1875,	-0.0625,	-0.125
4.145221557464823,	-0.17000000178813934,	-0.019999999552965164,	9.539999961853027,	0.0,	0.0,	-0.0625
4.150868998278807,	-0.18000000715255737,	0.0,	9.539999961853027,	0.0,	0.0,	-0.0625
4.156516439092792,	-0.18000000715255737,	0.0,	9.539999961853027,	0.0625,	0.0625,	-0.0625
4.162163879906777,	-0.17000000178813934,	0.0,	9.529999732971191,	0.0625,	0.0625,	-0.0625
4.167811320720761,	-0.18000000715255737,	0.009999999776482582,	9.529999732971191,	0.0,	0.0625,	-0.125
4.1734587615347465,	-0.18000000715255737,	0.009999999776482582,	9.529999732971191,	0.0,	0.0625,	-0.125
4.1791062023487315,	-0.18000000715255737,	0.0,	9.539999961853027,	0.0625,	0.0,	-0.1875
4.184753643162717,	-0.17000000178813934,	0.0,	9.5600004196167,	0.0625,	0.0,	-0.1875
4.190401083976701,	-0.17000000178813934,	0.0,	9.5600004196167,	0.0,	-0.1875,	-0.0625
4.196048524790686,	-0.17000000178813934,	-0.009999999776482582,	9.5600004196167,	0.0,	0.0625,	-0.1875
4.201695965604671,	-0.15000000596046448,	0.0,	9.5600004196167,	0.0,	0.0625,	-0.1875
4.207343406418655,	-0.20000000298023224,	-0.009999999776482582,	9.520000457763672,	0.0625,	0.0,	-0.1875
4.21299084723264,	-0.20000000298023224,	-0.009999999776482582,	9.520000457763672,	0.0625,	0.0,	-0.1875
4.218638288046625,	-0.1599999964237213,	-0.019999999552965164,	9.539999961853027,	0.0,	-0.125,	-0.125
4.224285728860609,	-0.18000000715255737,	-0.019999999552965164,	9.550000190734863,	0.0,	-0.125,	-0.125
4.229933169674594,	-0.18000000715255737,	-0.019999999552965164,	9.550000190734863,	0.0,	-0.0625,	0.0
4.235580610488579,	-0.18000000715255737,	0.0,	9.550000190734863,	0.0,	-0.1875,	-0.1875
4.2412280513025635,	-0.18000000715255737,	0.0,	9.5600004196167,	0.0,	-0.1875,	-0.1875
4.246875492116549,	-0.18000000715255737,	0.0,	9.5600004196167,	0.0625,	0.0,	-0.125
4.252522932930534,	-0.1599999964237213,	0.0,	9.529999732971191,	0.0625,	0.0,	-0.125
4.258170373744519,	-0.18000000715255737,	0.009999999776482582,	9.539999961853027,	0.0,	0.0,	-0.0625
4.263817814558503,	-0.17000000178813934,	0.0,	9.5600004196167,	0.0,	0.0,	-0.0625
4.269465255372488,	-0.17000000178813934,	0.0,	9.5600004196167,	-0.0625,	0.0,	-0.125
4.275112696186473,	-0.18000000715255737,	-0.009999999776482582,	9.550000190734863,	-0.0625,	0.0,	-0.125
4.280760137000457,	-0.17000000178813934,	0.0,	9.550000190734863,	-0.0625,	0.0,	-0.0625
4.286407577814442,	-0.17000000178813934,	0.0,	9.550000190734863,	0.0,	0.125,	0.0
4.292055018628427,	-0.18000000715255737,	0.0,	9.550000190734863,	0.0,	0.125,	0.0
4.297702459442411,	-0.18000000715255737,	-0.009999999776482582,	9.550000190734863,	0.0625,	-0.0625,	0.0625
4.303349900256396,	-0.18000000715255737,	-0.009999999776482582,	9.550000190734863,	0.0625,	-0.0625,	0.0625
4.3089973410703815,	-0.18000000715255737,	-0.019999999552965164,	9.5600004196167,	-0.125,	-0.0625,	0.0
4.314644781884366,	-0.1599999964237213,	0.0,	9.529999732971191,	-0.125,	-0.0625,	0.0
4.320292222698351,	-0.18000000715255737,	-0.009999999776482582,	9.550000190734863,	0.125,	-0.125,	-0.0625
4.325939663512336,	-0.18000000715255737,	-0.009999999776482582,	9.550000190734863,	-0.125,	0.0625,	-0.125
4.33158710432632,	-0.17000000178813934,	-0.009999999776482582,	9.5600004196167,	-0.125,	0.0625,	-0.125
4.337234545140305,	-0.18000000715255737,	0.0,	9.529999732971191,	-0.0625,	0.0625,	-0.0625
4.34288198595429,	-0.18000000715255737,	0.0,	9.529999732971191,	-0.0625,	0.0625,	-0.0625
4.348529426768275,	-0.17000000178813934,	0.0,	9.539999961853027,	-0.125,	-0.0625,	-0.25
4.354176867582259,	-0.1899999976158142,	0.0,	9.539999961853027,	-0.125,	-0.0625,	-0.25
4.359824308396244,	-0.18000000715255737,	0.0,	9.529999732971191,	0.0,	0.0625,	-0.0625
4.365471749210229,	-0.18000000715255737,	0.0,	9.529999732971191,	0.0,	0.0625,	-0.0625
4.3711191900242135,	-0.17000000178813934,	0.0,	9.529999732971191,	0.125,	0.0,	-0.125
4.3767666308381985,	-0.18000000715255737,	0.0,	9.520000457763672,	0.0,	0.0,	-0.0625
4.3824140716521836,	-0.18000000715255737,	0.0,	9.520000457763672,	0.0,	0.0,	-0.0625
4.388061512466168,	-0.17000000178813934,	-0.009999999776482582,	9.550000190734863,	0.0,	0.1875,	-0.0625
4.393708953280153,	-0.17000000178813934,	-0.019999999552965164,	9.5600004196167,	0.0,	0.1875,	-0.0625
4.399356394094138,	-0.17000000178813934,	-0.019999999552965164,	9.5600004196167,	-0.125,	-0.125,	-0.125
4.405003834908122,	-0.18000000715255737,	-0.019999999552965164,	9.5600004196167,	-0.125,	-0.125,	-0.125
4.410651275722107,	-0.1599999964237213,	-0.009999999776482582,	9.529999732971191,	-0.0625,	0.0,	0.0
4.416298716536092,	-0.1599999964237213,	-0.009999999776482582,	9.539999961853027,	-0.0625,	0.0625,	-0.0625
4.421946157350076,	-0.1599999964237213,	-0.009999999776482582,	9.539999961853027,	-0.0625,	0.0625,	-0.0625
4.427593598164061,	-0.1899999976158142,	0.0,	9.529999732971191,	0.0,	-0.125,	-0.125
4.433241038978046,	-0.18000000715255737,	0.0,	9.539999961853027,	0.0,	-0.125,	-0.125
4.438888479792031,	-0.18000000715255737,	0.0,	9.539999961853027,	-0.0625,	0.125,	-0.25
4.4445359206060155,	-0.17000000178813934,	-0.009999999776482582,	9.539999961853027,	-0.0625,	0.125,	-0.25
4.450183361420001,	-0.18000000715255737,	0.0,	9.510000228881836,	-0.0625,	-0.0625,	-0.0625
4.455830802233986,	-0.1899999976158142,	0.0,	9.5600004196167,	0.0625,	-0.125,	-0.0625
4.46147824304797,	-0.1899999976158142,	0.0,	9.5600004196167,	0.0625,	-0.125,	-0.0625
4.467125683861955,	-0.1899999976158142,	-0.019999999552965164,	9.5600004196167,	0.0625,	-0.125,	-0.0625
4.47277312467594,	-0.17000000178813934,	-0.009999999776482582,	9.539999961853027,	0.0625,	-0.125,	-0.0625
4.478420565489924,	-0.17000000178813934,	-0.009999999776482582,	9.539999961853027,	0.0,	0.0625,	-0.125
4.484068006303909,	-0.1899999976158142,	-0.009999999776482582,	9.529999732971191,	0.0,	0.0625,	-0.125
4.489715447117894,	-0.18000000715255737,	0.0,	9.539999961853027,	-0.0625,	0.0,	-0.125
4.495362887931878,	-0.15000000596046448,	-0.03999999910593033,	9.539999961853027,	-0.25,	0.0,	0.0
4.501010328745863,	-0.15000000596046448,	-0.03999999910593033,	9.539999961853027,	-0.25,	0.0,	0.0
4.506657769559848,	-0.15000000596046448,	0.0,	9.539999961853027,	0.0625,	-0.0625,	-0.125
4.512305210373833,	-0.15000000596046448,	-0.019999999552965164,	9.569999694824219,	0.0625,	-0.0625,	-0.125
4.517952651187818,	-0.15000000596046448,	-0.019999999552965164,	9.569999694824219,	-0.125,	-0.125,	-0.125
4.523600092001803,	-0.18000000715255737,	0.0,	9.5600004196167,	-0.125,	-0.125,	-0.125
4.529247532815788,	-0.18000000715255737,	0.0,	9.550000190734863,	0.125,	-0.125,	-0.0625
4.534894973629772,	-0.18000000715255737,	0.0,	9.550000190734863,	0.125,	-0.125,	-0.0625
4.540542414443757,	-0.17000000178813934,	0.009999999776482582,	9.529999732971191,	-0.0625,	-0.3125,	-0.125
4.546189855257742,	-0.17000000178813934,	0.0,	9.550000190734863,	-0.0625,	-0.0625,	0.0
4.551837296071726,	-0.17000000178813934,	0.0,	9.539999961853027,	-0.0625,	-0.0625,	0.0
4.557484736885711,	-0.17000000178813934,	0.0,	9.539999961853027,	0.125,	-0.0625,	-0.0625
4.563132177699696,	-0.18000000715255737,	0.0,	9.550000190734863,	0.125,	-0.0625,	-0.0625
4.56877961851368,	-0.20000000298023224,	-0.009999999776482582,	9.5600004196167,	-0.0625,	0.0625,	-0.0625
4.5744270593276655,	-0.20000000298023224,	-0.009999999776482582,	9.5600004196167,	-0.0625,	0.0625,	-0.0625
4.5800745001416505,	-0.17000000178813934,	-0.019999999552965164,	9.550000190734863,	0.0625,	-0.3125,	0.0
4.585721940955635,	-0.17000000178813934,	0.0,	9.5600004196167,	-0.125,	0.0,	0.0625
4.59136938176962,	-0.17000000178813934,	0.0,	9.5600004196167,	-0.125,	0.0,	0.0625
4.597016822583605,	-0.1599999964237213,	-0.009999999776482582,	9.5600004196167,	0.0,	-0.0625,	0.0625
4.602664263397589,	-0.18000000715255737,	-0.019999999552965164,	9.579999923706055,	0.0,	-0.0625,	0.0625
4.608311704211574,	-0.18000000715255737,	-0.009999999776482582,	9.539999961853027,	0.0625,	-0.0625,	-0.125
4.613959145025559,	-0.18000000715255737,	-0.009999999776482582,	9.539999961853027,	0.0625,	-0.0625,	-0.125
4.619606585839544,	-0.1599999964237213,	0.0,	9.529999732971191,	-0.0625,	-0.1875,	-0.0625
4.625254026653528,	-0.1599999964237213,	0.0,	9.569999694824219,	-0.0625,	-0.1875,	-0.0625
4.630901467467513,	-0.1599999964237213,	0.0,	9.569999694824219,	-0.125,	-0.0625,	-0.125
4.636548908281498,	-0.1599999964237213,	0.0,	9.539999961853027,	0.0,	0.125,	-0.125
4.6421963490954825,	-0.17000000178813934,	0.0,	9.520000457763672,	0.0,	0.125,	-0.125
4.647843789909468,	-0.1599999964237213,	0.0,	9.539999961853027,	0.0,	-0.1875,	-0.0625
4.653491230723453,	-0.1599999964237213,	0.0,	9.539999961853027,	0.0,	-0.1875,	-0.0625
4.659138671537437,	-0.18000000715255737,	0.0,	9.539999961853027,	0.125,	-0.0625,	-0.125
4.664786112351422,	-0.17000000178813934,	0.0,	9.550000190734863,	0.125,	-0.0625,	-0.125
4.670433553165407,	-0.17000000178813934,	0.0,	9.550000190734863,	0.125,	0.0,	0.0
4.676080993979391,	-0.18000000715255737,	0.0,	9.550000190734863,	-0.0625,	-0.0625,	0.0
4.681728434793376,	-0.1899999976158142,	0.0,	9.5600004196167,	-0.0625,	-0.0625,	0.0
4.687375875607361,	-0.1899999976158142,	0.0,	9.5600004196167,	-0.0625,	0.0625,	0.0
4.693023316421345,	-0.17000000178813934,	-0.009999999776482582,	9.529999732971191,	-0.0625,	0.0625,	0.0
4.69867075723533,	-0.17000000178813934,	-0.019999999552965164,	9.550000190734863,	-0.0625,	0.0,	-0.125
4.704318198049315,	-0.17000000178813934,	0.0,	9.539999961853027,	-0.0625,	0.0,	-0.125
4.7099656388633,	-0.17000000178813934,	0.0,	9.539999961853027,	0.0625,	0.125,	-0.1875
4.715613079677285,	-0.18000000715255737,	0.0,	9.550000190734863,	-0.0625,	0.0625,	-0.0625
4.72126052049127,	-0.1599999964237213,	-0.009999999776482582,	9.539999961853027,	-0.0625,	0.0625,	-0.0625
4.726907961305255,	-0.1599999964237213,	-0.009999999776482582,	9.539999961853027,	-0.0625,	0.0,	-0.0625
4.732555402119239,	-0.17000000178813934,	0.0,	9.539999961853027,	-0.0625,	0.0,	-0.0625
4.738202842933224,	-0.1899999976158142,	0.009999999776482582,	9.529999732971191,	0.0,	0.0,	-0.0625
4.743850283747209,	-0.18000000715255737,	-0.019999999552965164,	9.539999961853027,	0.0,	0.0,	-0.0625
4.749497724561193,	-0.18000000715255737,	-0.019999999552965164,	9.539999961853027,	0.0,	-0.0625,	0.0
4.755145165375178,	-0.18000000715255737,	0.0,	9.539999961853027,	0.0,	-0.0625,	0.0
4.760792606189163,	-0.1899999976158142,	0.0,	9.539999961853027,	0.0625,	0.0625,	-0.125
4.766440047003147,	-0.1899999976158142,	0.0,	9.539999961853027,	0.125,	0.0625,	-0.125
4.772087487817132,	-0.17000000178813934,	-0.009999999776482582,	9.579999923706055,	0.125,	0.0625,	-0.125
4.7777349286311175,	-0.18000000715255737,	0.0,	9.539999961853027,	0.0625,	0.0,	-0.1875
4.783382369445102,	-0.17000000178813934,	0.0,	9.529999732971191,	0.0625,	0.0,	-0.1875
4.789029810259087,	-0.17000000178813934,	0.0,	9.529999732971191,	-0.0625,	0.0625,	-0.125
4.794677251073072,	-0.17000000178813934,	0.0,	9.520000457763672,	-0.0625,	0.0625,	-0.125
4.800324691887057,	-0.17000000178813934,	0.0,	9.539999961853027,	-0.0625,	0.0,	-0.125
4.805972132701041,	-0.17000000178813934,	0.0,	9.539999961853027,	0.0,	-0.0625,	-0.0625
4.811619573515026,	-0.1599999964237213,	0.0,	9.539999961853027,	0.0,	-0.0625,	-0.0625
4.817267014329011,	-0.18000000715255737,	0.0,	9.520000457763672,	-0.0625,	-0.0625,	-0.0625
4.822914455142995,	-0.18000000715255737,	0.0,	9.520000457763672,	-0.0625,	-0.0625,	-0.0625
4.82856189595698,	-0.17000000178813934,	0.0,	9.529999732971191,	-0.125,	0.0,	-0.25
4.834209336770965,	-0.1599999964237213,	0.0,	9.539999961853027,	-0.125,	0.0,	-0.25
4.8398567775849495,	-0.1599999964237213,	0.009999999776482582,	9.550000190734863,	-0.125,	0.0,	-0.0625
4.8455042183989345,	-0.1599999964237213,	0.009999999776482582,	9.550000190734863,	-0.125,	0.0,	-0.0625
4.85115165921292,	-0.18000000715255737,	0.0,	9.550000190734863,	0.0,	-0.125,	-0.125
4.856799100026904,	-0.18000000715255737,	0.0,	9.569999694824219,	-0.0625,	0.0625,	-0.25
4.862446540840889,	-0.18000000715255737,	0.0,	9.569999694824219,	-0.0625,	0.0625,	-0.25
4.868093981654874,	-0.17000000178813934,	-0.009999999776482582,	9.550000190734863,	-0.125,	0.0625,	-0.125
4.873741422468858,	-0.1599999964237213,	-0.019999999552965164,	9.539999961853027,	-0.125,	0.0625,	-0.125
4.879388863282843,	-0.1599999964237213,	-0.019999999552965164,	9.539999961853027,	-0.0625,	0.0625,	-0.0625
4.885036304096828,	-0.17000000178813934,	0.0,	9.550000190734863,	-0.0625,	0.0625,	-0.0625
4.890683744910813,	-0.18000000715255737,	0.0,	9.5600004196167,	0.0625,	0.0,	-0.0625
4.896331185724797,	-0.17000000178813934,	-0.019999999552965164,	9.520000457763672,	0.0,	0.0625,	-0.0625
4.901978626538782,	-0.17000000178813934,	-0.019999999552965164,	9.520000457763672,	0.0,	0.0625,	-0.0625
4.907626067352767,	-0.17000000178813934,	-0.019999999552965164,	9.529999732971191,	0.0,	-0.125,	-0.1875
4.913273508166752,	-0.18000000715255737,	0.0,	9.529999732971191,	0.0,	-0.125,	-0.1875
4.918920948980737,	-0.18000000715255737,	0.0,	9.529999732971191,	0.0625,	0.0,	0.0
4.924568389794722,	-0.1599999964237213,	0.0,	9.5600004196167,	0.0625,	0.0,	0.0
4.930215830608706,	-0.17000000178813934,	-0.009999999776482582,	9.529999732971191,	-0.0625,	0.0625,	-0.125
4.935863271422691,	-0.1899999976158142,	0.0,	9.520000457763672,	0.0,	0.0,	0.0
4.941510712236676,	-0.1899999976158142,	0.0,	9.520000457763672,	0.0,	0.0,	0.0
4.94715815305066,	-0.1899999976158142,	0.0,	9.5600004196167,	-0.0625,	-0.125,	0.0
4.952805593864645,	-0.17000000178813934,	-0.009999999776482582,	9.5600004196167,	-0.0625,	-0.125,	0.0
4.95845303467863,	-0.17000000178813934,	-0.009999999776482582,	9.5600004196167,	0.125,	-0.1875,	-0.125
4.964100475492614,	-0.18000000715255737,	0.0,	9.529999732971191,	0.125,	-0.1875,	-0.125
4.969747916306599,	-0.17000000178813934,	0.0,	9.5600004196167,	-0.1875,	-0.0625,	0.0
4.9753953571205844,	-0.17000000178813934,	0.0,	9.5600004196167,	-0.1875,	-0.0625,	0.0
4.9810427979345695,	-0.18000000715255737,	-0.019999999552965164,	9.539999961853027,	-0.125,	0.125,	0.0
4.986690238748554,	-0.18000000715255737,	-0.029999999329447746,	9.520000457763672,	-0.0625,	0.125,	0.0625
4.992337679562539,	-0.17000000178813934,	0.0,	9.520000457763672,	-0.0625,	0.125,	0.0625
4.997985120376524,	-0.17000000178813934,	0.0,	9.520000457763672,	0.0,	0.0625,	-0.1875
5.003632561190508,	-0.18000000715255737,	0.0,	9.550000190734863,	0.0,	0.0625,	-0.1875
5.009280002004493,	-0.18000000715255737,	0.0,	9.539999961853027,	-0.0625,	0.0,	-0.1875
5.014927442818478,	-0.18000000715255737,	0.0,	9.539999961853027,	-0.0625,	0.0,	-0.1875
5.020574883632462,	-0.18000000715255737,	0.0,	9.520000457763672,	-0.0625,	0.125,	-0.125
5.026222324446447,	-0.17000000178813934,	0.0,	9.550000190734863,	-0.0625,	0.0,	-0.0625
5.031869765260432,	-0.17000000178813934,	0.0,	9.550000190734863,	-0.0625,	0.0,	-0.0625
5.037517206074416,	-0.18000000715255737,	-0.009999999776482582,	9.539999961853027,	0.1875,	0.0625,	-0.0625
5.0431646468884015,	-0.17000000178813934,	0.0,	9.539999961853027,	0.1875,	0.0625,	-0.0625
5.0488120877023865,	-0.17000000178813934,	0.0,	9.550000190734863,	-0.0625,	-0.1875,	-0.0625
5.054459528516371,	-0.17000000178813934,	0.0,	9.550000190734863,	-0.0625,	-0.1875,	-0.0625
5.060106969330356,	-0.1599999964237213,	-0.009999999776482582,	9.550000190734863,	0.0625,	0.0,	-0.1875
5.065754410144341,	-0.18000000715255737,	0.0,	9.5600004196167,	0.0625,	0.0,	-0.1875
5.071401850958326,	-0.18000000715255737,	0.0,	9.5600004196167,	0.0,	0.0625,	-0.125
5.07704929177231,	-0.17000000178813934,	-0.009999999776482582,	9.550000190734863,	-0.1875,	0.125,	-0.0625
5.082696732586295,	-0.1599999964237213,	-0.009999999776482582,	9.550000190734863,	-0.1875,	0.125,	-0.0625
5.08834417340028,	-0.18000000715255737,	0.0,	9.539999961853027,	0.0,	-0.1875,	-0.0625
5.093991614214264,	-0.18000000715255737,	0.0,	9.539999961853027,	0.0,	-0.1875,	-0.0625
5.099639055028249,	-0.17000000178813934,	-0.009999999776482582,	9.550000190734863,	-0.125,	0.0,	-0.125
5.105286495842234,	-0.1899999976158142,	0.0,	9.539999961853027,	-0.125,	0.0,	-0.125
5.1109339366562185,	-0.1899999976158142,	0.0,	9.539999961853027,	0.0625,	0.0625,	-0.125
5.116581377470204,	-0.18000000715255737,	0.019999999552965164,	9.529999732971191,	-0.0625,	-0.125,	-0.0625
5.122228818284189,	-0.17000000178813934,	0.009999999776482582,	9.569999694824219,	-0.0625,	-0.125,	-0.0625
5.127876259098173,	-0.17000000178813934,	0.009999999776482582,	9.569999694824219,	-0.125,	0.125,	-0.1875
5.133523699912158,	-0.1899999976158142,	0.0,	9.5600004196167,	-0.125,	0.125,	-0.1875
5.139171140726143,	-0.18000000715255737,	0.0,	9.539999961853027,	0.0,	0.0,	-0.125
5.144818581540127,	-0.18000000715255737,	0.0,	9.550000190734863,	0.0,	0.0,	-0.125
5.150466022354112,	-0.18000000715255737,	0.0,	9.550000190734863,	-0.0625,	0.0,	0.0
5.156113463168097,	-0.18000000715255737,	-0.009999999776482582,	9.5600004196167,	-0.0625,	0.0,	0.0
5.161760903982082,	-0.15000000596046448,	0.0,	9.569999694824219,	0.0625,	-0.0625,	0.0
5.167408344796066,	-0.15000000596046448,	0.0,	9.569999694824219,	-0.0625,	-0.25,	-0.0625
5.173055785610051,	-0.1899999976158142,	-0.009999999776482582,	9.539999961853027,	-0.0625,	-0.25,	-0.0625
5.1787032264240365,	-0.1599999964237213,	0.0,	9.550000190734863,	-0.0625,	0.0,	-0.0625
5.184350667238021,	-0.1599999964237213,	0.0,	9.550000190734863,	-0.0625,	0.0,	-0.0625
5.189998108052006,	-0.1899999976158142,	-0.029999999329447746,	9.5600004196167,	0.0,	-0.0625,	0.0
5.195645548865991,	-0.17000000178813934,	0.0,	9.529999732971191,	0.0,	-0.0625,	0.0
5.201292989679975,	-0.18000000715255737,	0.0,	9.5600004196167,	0.0,	0.0,	-0.0625
5.20694043049396,	-0.18000000715255737,	0.0,	9.5600004196167,	0.0,	0.0,	-0.0625
5.212587871307945,	-0.18000000715255737,	0.0,	9.5600004196167,	0.0,	-0.0625,	-0.125
5.218235312121929,	-0.17000000178813934,	0.0,	9.569999694824219,	0.0,	-0.0625,	0.0
5.223882752935914,	-0.17000000178813934,	0.0,	9.569999694824219,	0.0,	-0.0625,	0.0
5.229530193749899,	-0.17000000178813934,	-0.009999999776482582,	9.539999961853027,	0.0,	-0.0625,	0.0
5.235177634563883,	-0.17000000178813934,	0.0,	9.550000190734863,	0.0,	-0.0625,	0.0
5.2408250753778685,	-0.17000000178813934,	0.0,	9.550000190734863,	0.0625,	0.0625,	-0.0625
5.2464725161918535,	-0.17000000178813934,	-0.009999999776482582,	9.5600004196167,	0.0625,	0.0625,	-0.0625
5.252119957005839,	-0.17000000178813934,	0.0,	9.539999961853027,	-0.0625,	-0.1875,	-0.0625
5.257767397819823,	-0.1599999964237213,	-0.009999999776482582,	9.550000190734863,	0.0,	-0.0625,	-0.0625
5.263414838633808,	-0.1599999964237213,	-0.009999999776482582,	9.550000190734863,	0.0,	-0.0625,	-0.0625
5.269062279447793,	-0.17000000178813934,	-0.009999999776482582,	9.539999961853027,	-0.0625,	-0.0625,	0.0
5.274709720261777,	-0.17000000178813934,	0.0,	9.520000457763672,	-0.0625,	-0.0625,	0.0
5.280357161075762,	-0.17000000178813934,	0.0,	9.520000457763672,	0.0,	-0.0625,	-0.125
5.286004601889747,	-0.17000000178813934,	0.0,	9.529999732971191,	0.0,	-0.0625,	-0.125
5.291652042703731,	-0.17000000178813934,	0.0,	9.5600004196167,	0.0625,	0.0,	-0.0625
5.297299483517716,	-0.17000000178813934,	0.0,	9.550000190734863,	0.0625,	0.0,	-0.0625
5.302946924331701,	-0.17000000178813934,	0.0,	9.550000190734863,	0.0625,	0.0,	-0.125
5.3085943651456855,	-0.1599999964237213,	0.0,	9.550000190734863,	0.125,	0.125,	-0.1875
5.3142418059596706,	-0.18000000715255737,	0.0,	9.550000190734863,	0.125,	0.125,	-0.1875
5.319889246773656,	-0.18000000715255737,	0.0,	9.550000190734863,	0.0,	0.0,	-0.0625
5.32553668758764,	-0.18000000715255737,	0.0,	9.539999961853027,	0.0,	0.0,	-0.0625
5.331184128401625,	-0.18000000715255737,	0.0,	9.539999961853027,	-0.0625,	0.0,	-0.125
5.33683156921561,	-0.18000000715255737,	0.0,	9.539999961853027,	-0.0625,	0.0,	-0.125
5.342479010029595,	-0.17000000178813934,	0.0,	9.539999961853027,	0.0,	0.0625,	-0.125
5.348126450843579,	-0.18000000715255737,	-0.009999999776482582,	9.529999732971191,	0.125,	-0.0625,	-0.0625
5.353773891657564,	-0.18000000715255737,	-0.009999999776482582,	9.529999732971191,	0.125,	-0.0625,	-0.0625
5.359421332471549,	-0.15000000596046448,	0.0,	9.579999923706055,	0.0625,	-0.125,	-0.0625
5.365068773285533,	-0.1599999964237213,	-0.019999999552965164,	9.550000190734863,	0.0625,	-0.125,	-0.0625
5.370716214099518,	-0.1599999964237213,	0.0,	9.539999961853027,	-0.0625,	-0.0625,	-0.0625
5.376363654913503,	-0.1599999964237213,	0.0,	9.539999961853027,	-0.0625,	-0.0625,	-0.0625
5.382011095727488,	-0.18000000715255737,	0.0,	9.520000457763672,	0.0,	0.0625,	-0.125
5.387658536541473,	-0.17000000178813934,	-0.009999999776482582,	9.510000228881836,	0.0,	0.0625,	-0.125
5.393305977355458,	-0.17000000178813934,	-0.009999999776482582,	9.510000228881836,	-0.0625,	-0.0625,	-0.125
5.398953418169442,	-0.1599999964237213,	0.019999999552965164,	9.5600004196167,	0.0,	0.0,	-0.125
5.404600858983427,	-0.17000000178813934,	0.0,	9.5600004196167,	0.0,	0.0,	-0.125
5.410248299797412,	-0.18000000715255737,	-0.009999999776482582,	9.550000190734863,	0.0,	0.0,	-0.0625
5.415895740611396,	-0.18000000715255737,	-0.009999999776482582,	9.550000190734863,	0.0,	0.0,	-0.0625
5.421543181425381,	-0.1599999964237213,	0.0,	9.539999961853027,	0.0625,	-0.0625,	0.0
5.427190622239366,	-0.15000000596046448,	0.0,	9.569999694824219,	0.0625,	-0.0625,	0.0
5.432838063053351,	-0.15000000596046448,	0.0,	9.569999694824219,	-0.0625,	-0.0625,	-0.125
5.438485503867335,	-0.18000000715255737,	0.0,	9.539999961853027,	-0.125,	0.125,	-0.125
5.4441329446813205,	-0.1899999976158142,	0.0,	9.550000190734863,	-0.125,	0.125,	-0.125
5.4497803854953055,	-0.1899999976158142,	0.0,	9.550000190734863,	-0.0625,	0.0,	-0.0625
5.45542782630929,	-0.18000000715255737,	0.0,	9.5600004196167,	-0.0625,	0.0,	-0.0625
5.461075267123275,	-0.18000000715255737,	-0.019999999552965164,	9.539999961853027,	0.0,	0.0625,	-0.125
5.46672270793726,	-0.1599999964237213,	0.0,	9.529999732971191,	0.0,	0.0625,	-0.125
5.472370148751244,	-0.1599999964237213,	0.0,	9.529999732971191,	0.0,	0.125,	-0.125
5.478017589565229,	-0.1599999964237213,	-0.009999999776482582,	9.529999732971191,	0.0,	0.125,	-0.125
5.483665030379214,	-0.18000000715255737,	0.0,	9.539999961853027,	0.0,	-0.125,	-0.125
5.489312471193198,	-0.18000000715255737,	0.0,	9.539999961853027,	-0.0625,	-0.0625,	-0.125
5.494959912007183,	-0.17000000178813934,	0.0,	9.539999961853027,	-0.0625,	-0.0625,	-0.125
5.500607352821168,	-0.17000000178813934,	0.0,	9.550000190734863,	0.0,	0.0,	-0.1875
5.5062547936351525,	-0.18000000715255737,	0.0,	9.510000228881836,	0.0,	0.0,	-0.1875
5.5119022344491375,	-0.18000000715255737,	0.0,	9.510000228881836,	0.125,	0.0,	-0.0625
5.517549675263123,	-0.17000000178813934,	-0.019999999552965164,	9.579999923706055,	0.125,	0.0,	-0.0625
5.523197116077108,	-0.18000000715255737,	-0.009999999776482582,	9.529999732971191,	-0.0625,	0.0,	-0.0625
5.528844556891092,	-0.18000000715255737,	-0.009999999776482582,	9.529999732971191,	0.0625,	0.0,	-0.0625
5.534491997705077,	-0.1599999964237213,	-0.009999999776482582,	9.529999732971191,	0.0625,	0.0,	-0.0625
5.540139438519062,	-0.1599999964237213,	-0.009999999776482582,	9.529999732971191,	0.0,	0.0,	-0.0625
5.545786879333046,	-0.17000000178813934,	-0.009999999776482582,	9.550000190734863,	0.0,	0.0,	-0.0625
5.551434320147031,	-0.17000000178813934,	-0.009999999776482582,	9.550000190734863,	-0.0625,	-0.0625,	-0.125
5.557081760961016,	-0.17000000178813934,	0.0,	9.539999961853027,	-0.0625,	-0.0625,	-0.125
5.562729201775,	-0.18000000715255737,	0.0,	9.5600004196167,	0.0,	-0.0625,	0.0
5.568376642588985,	-0.18000000715255737,	0.0,	9.5600004196167,	0.0,	0.0625,	-0.125
5.57402408340297,	-0.1899999976158142,	-0.009999999776482582,	9.550000190734863,	0.0,	0.0625,	-0.125
5.579671524216955,	-0.1599999964237213,	0.0,	9.539999961853027,	0.0625,	-0.125,	0.0625
5.58531896503094,	-0.1599999964237213,	0.0,	9.539999961853027,	0.0625,	-0.125,	0.0625
5.590966405844925,	-0.1899999976158142,	0.0,	9.550000190734863,	0.125,	0.0,	-0.1875
5.596613846658909,	-0.18000000715255737,	0.0,	9.550000190734863,	0.125,	0.0,	-0.1875
5.602261287472894,	-0.17000000178813934,	0.0,	9.539999961853027,	0.0,	-0.125,	-0.0625
5.607908728286879,	-0.17000000178813934,	0.0,	9.539999961853027,	0.0,	-0.125,	-0.0625
5.613556169100864,	-0.1899999976158142,	0.0,	9.5600004196167,	-0.0625,	-0.125,	0.0625
5.619203609914848,	-0.18000000715255737,	-0.009999999776482582,	9.5600004196167,	0.0,	0.0625,	-0.0625
5.624851050728833,	-0.18000000715255737,	-0.009999999776482582,	9.5600004196167,	0.0,	0.0625,	-0.0625
5.630498491542818,	-0.1599999964237213,	0.0,	9.550000190734863,	-0.0625,	-0.0625,	-0.125
5.636145932356802,	-0.18000000715255737,	-0.009999999776482582,	9.550000190734863,	-0.0625,	-0.0625,	-0.125
5.641793373170787,	-0.18000000715255737,	-0.009999999776482582,	9.550000190734863,	-0.0625,	0.0,	-0.125
5.6474408139847725,	-0.18000000715255737,	0.0,	9.550000190734863,	-0.0625,	0.0,	-0.125
5.653088254798757,	-0.17000000178813934,	-0.019999999552965164,	9.510000228881836,	0.0,	0.125,	0.0
5.658735695612742,	-0.15000000596046448,	-0.009999999776482582,	9.550000190734863,	0.0,	0.0,	-0.125
5.664383136426727,	-0.15000000596046448,	-0.009999999776482582,	9.550000190734863,	0.0,	0.0,	-0.125
5.670030577240711,	-0.18000000715255737,	0.0,	9.550000190734863,	0.0625,	0.125,	-0.0625
5.675678018054696,	-0.18000000715255737,	0.0,	9.5600004196167,	0.0625,	0.125,	-0.0625
5.681325458868681,	-0.18000000715255737,	0.0,	9.5600004196167,	0.0625,	-0.0625,	-0.0625
5.686972899682665,	-0.1899999976158142,	0.0,	9.550000190734863,	0.0625,	-0.0625,	-0.0625
5.69262034049665,	-0.17000000178813934,	0.0,	9.5600004196167,	-0.0625,	-0.125,	0.0
5.698267781310635,	-0.18000000715255737,	0.0,	9.539999961853027,	0.0,	0.125,	0.0
5.70391522212462,	-0.18000000715255737,	0.0,	9.539999961853027,	0.0,	0.125,	0.0
5.7095626629386045,	-0.1899999976158142,	-0.009999999776482582,	9.539999961853027,	-0.0625,	-0.0625,	0.0
5.7152101037525895,	-0.18000000715255737,	-0.009999999776482582,	9.539999961853027,	-0.0625,	-0.0625,	0.0
5.720857544566575,	-0.18000000715255737,	-0.009999999776482582,	9.539999961853027,	0.0,	-0.0625,	-0.1875
5.726504985380559,	-0.18000000715255737,	0.0,	9.539999961853027,	0.0,	-0.0625,	-0.1875
5.732152426194544,	-0.15000000596046448,	-0.019999999552965164,	9.529999732971191,	-0.0625,	-0.0625,	-0.0625
5.737799867008529,	-0.15000000596046448,	-0.019999999552965164,	9.529999732971191,	-0.0625,	-0.0625,	-0.0625
5.743447307822513,	-0.18000000715255737,	-0.009999999776482582,	9.539999961853027,	-0.1875,	0.0625,	-0.125
5.749094748636498,	-0.1599999964237213,	0.0,	9.529999732971191,	0.0625,	-0.125,	-0.125
5.754742189450483,	-0.1599999964237213,	0.0,	9.550000190734863,	0.0625,	-0.125,	-0.125
5.760389630264467,	-0.1599999964237213,	0.0,	9.550000190734863,	-0.0625,	0.0625,	-0.0625
5.766037071078452,	-0.18000000715255737,	0.0,	9.579999923706055,	-0.0625,	0.0625,	-0.0625
5.771684511892437,	-0.1899999976158142,	0.0,	9.5600004196167,	0.0625,	-0.0625,	-0.25
5.7773319527064215,	-0.1899999976158142,	0.0,	9.5600004196167,	0.0625,	-0.0625,	-0.25
5.782979393520407,	-0.1899999976158142,	0.0,	9.550000190734863,	0.0625,	0.0,	-0.0625
5.788626834334392,	-0.18000000715255737,	-0.009999999776482582,	9.539999961853027,	-0.125,	-0.125,	0.0
5.794274275148377,	-0.17000000178813934,	0.0,	9.550000190734863,	-0.125,	-0.125,	0.0
5.799921715962361,	-0.17000000178813934,	0.0,	9.550000190734863,	-0.0625,	-0.125,	-0.1875
5.805569156776346,	-0.18000000715255737,	0.0,	9.529999732971191,	-0.0625,	-0.125,	-0.1875
5.811216597590331,	-0.1599999964237213,	0.0,	9.550000190734863,	0.0625,	-0.0625,	0.0625
5.816864038404315,	-0.1599999964237213,	0.0,	9.550000190734863,	0.0625,	-0.0625,	0.0625
5.8225114792183,	-0.1599999964237213,	-0.009999999776482582,	9.539999961853027,	-0.0625,	0.125,	-0.0625
5.828158920032285,	-0.18000000715255737,	-0.009999999776482582,	9.539999961853027,	0.0625,	0.125,	-0.125
5.833806360846269,	-0.18000000715255737,	-0.009999999776482582,	9.539999961853027,	0.0625,	0.125,	-0.125
5.839453801660254,	-0.17000000178813934,	0.0,	9.539999961853027,	0.125,	0.0625,	-0.1875
5.8451012424742395,	-0.17000000178813934,	0.0,	9.550000190734863,	0.125,	0.0625,	-0.1875
5.850748683288224,	-0.15000000596046448,	0.0,	9.539999961853027,	0.0,	0.0625,	-0.125
5.856396124102209,	-0.15000000596046448,	0.0,	9.539999961853027,	0.0,	0.0625,	-0.125
5.862043564916194,	-0.17000000178813934,	0.009999999776482582,	9.5600004196167,	0.0,	-0.125,	-0.125
5.867691005730178,	-0.18000000715255737,	0.0,	9.539999961853027,	-0.0625,	0.0625,	-0.125
5.873338446544163,	-0.18000000715255737,	0.0,	9.539999961853027,	-0.0625,	0.0625,	-0.125
5.878985887358148,	-0.1899999976158142,	0.0,	9.529999732971191,	0.0625,	0.0,	-0.125
5.884633328172133,	-0.18000000715255737,	0.0,	9.539999961853027,	0.0625,	0.0,	-0.125
5.890280768986117,	-0.18000000715255737,	0.0,	9.550000190734863,	-0.0625,	-0.1875,	-0.1875
5.895928209800102,	-0.18000000715255737,	0.0,	9.550000190734863,	-0.0625,	-0.1875,	-0.1875
5.901575650614087,	-0.1599999964237213,	-0.029999999329447746,	9.550000190734863,	0.0,	0.0,	0.0
5.9072230914280714,	-0.17000000178813934,	-0.03999999910593033,	9.539999961853027,	0.0,	-0.125,	-0.125
5.9128705322420565,	-0.17000000178813934,	-0.03999999910593033,	9.539999961853027,	0.0,	-0.125,	-0.125
5.9185179730560415,	-0.15000000596046448,	0.0,	9.5600004196167,	0.0625,	-0.125,	-0.1875
5.924165413870026,	-0.1899999976158142,	0.0,	9.529999732971191,	0.0625,	-0.125,	-0.1875
5.929812854684011,	-0.15000000596046448,	-0.009999999776482582,	9.550000190734863,	-0.125,	0.0,	-0.0625
5.935460295497996,	-0.15000000596046448,	-0.009999999776482582,	9.550000190734863,	-0.125,	0.0,	-0.0625
5.94110773631198,	-0.15000000596046448,	-0.009999999776482582,	9.550000190734863,	0.0,	0.0,	-0.1875
5.946755177125965,	-0.1899999976158142,	0.0,	9.550000190734863,	0.0,	0.0,	-0.1875
5.95240261793995,	-0.1899999976158142,	0.0,	9.550000190734863,	0.0625,	0.0,	-0.0625
5.958050058753934,	-0.18000000715255737,	0.0,	9.539999961853027,	0.0,	-0.1875,	-0.125
5.963697499567919,	-0.18000000715255737,	-0.009999999776482582,	9.539999961853027,	0.0,	-0.1875,	-0.125
5.969344940381904,	-0.18000000715255737,	-0.009999999776482582,	9.539999961853027,	-0.125,	0.125,	-0.125
5.974992381195889,	-0.17000000178813934,	0.0,	9.550000190734863,	-0.125,	0.125,	-0.125
5.9806398220098735,	-0.17000000178813934,	0.009999999776482582,	9.539999961853027,	0.0,	0.0625,	-0.125
5.986287262823859,	-0.17000000178813934,	0.009999999776482582,	9.5600004196167,	0.0,	0.0625,	-0.125
5.991934703637844,	-0.17000000178813934,	0.009999999776482582,	9.5600004196167,	0.125,	0.0,	0.0
5.997582144451828,	-0.18000000715255737,	-0.019999999552965164,	9.5600004196167,	0.125,	0.0,	0.0
6.003229585265813,	-0.17000000178813934,	-0.009999999776482582,	9.5600004196167,	-0.125,	0.0625,	-0.0625
6.008877026079798,	-0.17000000178813934,	-0.009999999776482582,	9.5600004196167,	0.0,	-0.0625,	0.0
6.014524466893782,	-0.18000000715255737,	-0.009999999776482582,	9.539999961853027,	0.0,	-0.0625,	0.0
6.020171907707767,	-0.17000000178813934,	0.0,	9.539999961853027,	0.0,	-0.0625,	-0.125
6.025819348521752,	-0.17000000178813934,	0.0,	9.539999961853027,	0.0,	-0.0625,	-0.125
6.031466789335736,	-0.1899999976158142,	0.0,	9.529999732971191,	-0.0625,	0.0,	0.0
6.037114230149721,	-0.1599999964237213,	0.0,	9.550000190734863,	-0.0625,	0.0,	0.0
6.042761670963706,	-0.15000000596046448,	-0.009999999776482582,	9.510000228881836,	-0.125,	0.0,	-0.25
6.048409111777691,	-0.15000000596046448,	-0.009999999776482582,	9.510000228881836,	-0.125,	0.0,	-0.25
6.054056552591676,	-0.18000000715255737,	0.0,	9.539999961853027,	0.0625,	0.0625,	-0.125
6.059703993405661,	-0.18000000715255737,	0.009999999776482582,	9.5600004196167,	0.125,	0.0,	-0.125
6.065351434219646,	-0.18000000715255737,	0.009999999776482582,	9.5600004196167,	0.125,	0.0,	-0.125
6.07099887503363,	-0.17000000178813934,	-0.009999999776482582,	9.529999732971191,	0.0,	0.0,	-0.125
6.076646315847615,	-0.17000000178813934,	0.0,	9.550000190734863,	0.0,	0.0,	-0.125
6.0822937566616,	-0.17000000178813934,	0.0,	9.550000190734863,	0.0,	0.0625,	-0.0625
6.087941197475584,	-0.18000000715255737,	0.0,	9.539999961853027,	0.0,	0.0625,	-0.0625
6.093588638289569,	-0.1599999964237213,	0.0,	9.550000190734863,	-0.0625,	0.125,	-0.0625
6.099236079103554,	-0.18000000715255737,	0.0,	9.550000190734863,	0.0,	-0.0625,	-0.0625
6.104883519917538,	-0.18000000715255737,	0.0,	9.550000190734863,	0.0,	-0.0625,	-0.0625
6.1105309607315235,	-0.18000000715255737,	-0.009999999776482582,	9.550000190734863,	-0.0625,	-0.0625,	0.0
6.1161784015455085,	-0.1899999976158142,	-0.009999999776482582,	9.529999732971191,	-0.0625,	-0.0625,	0.0
6.121825842359493,	-0.1899999976158142,	-0.009999999776482582,	9.529999732971191,	-0.125,	0.0625,	-0.0625
6.127473283173478,	-0.14000000059604645,	-0.009999999776482582,	9.550000190734863,	-0.125,	0.0625,	-0.0625
6.133120723987463,	-0.20999999344348907,	0.0,	9.539999961853027,	-0.125,	-0.125,	-0.0625
6.138768164801447,	-0.17000000178813934,	-0.009999999776482582,	9.529999732971191,	-0.125,	-0.125,	-0.0625
6.144415605615432,	-0.17000000178813934,	-0.009999999776482582,	9.529999732971191,	-0.125,	-0.125,	-0.0625
6.150063046429417,	-0.17000000178813934,	0.0,	9.529999732971191,	0.0625,	-0.125,	-0.1875
6.155710487243402,	-0.17000000178813934,	0.009999999776482582,	9.550000190734863,	0.0625,	-0.125,	-0.1875
6.161357928057386,	-0.17000000178813934,	0.009999999776482582,	9.550000190734863,	0.0625,	-0.125,	-0.1875
6.167005368871371,	-0.18000000715255737,	0.0,	9.539999961853027,	0.0625,	-0.125,	-0.1875
6.172652809685356,	-0.17000000178813934,	0.0,	9.520000457763672,	0.0625,	0.0625,	-0.0625
6.1783002504993405,	-0.17000000178813934,	0.0,	9.520000457763672,	0.0625,	0.0625,	-0.0625
6.183947691313326,	-0.17000000178813934,	0.0,	9.539999961853027,	-0.0625,	-0.0625,	-0.0625
6.189595132127311,	-0.17000000178813934,	0.0,	9.550000190734863,	0.0625,	0.0625,	-0.0625
6.195242572941295,	-0.17000000178813934,	0.0,	9.550000190734863,	0.0625,	0.0625,	-0.0625
6.20089001375528,	-0.17000000178813934,	-0.009999999776482582,	9.5600004196167,	0.0,	0.0625,	-0.0625
6.206537454569265,	-0.1599999964237213,	-0.009999999776482582,	9.529999732971191,	0.0,	0.0625,	-0.0625
6.212184895383249,	-0.1599999964237213,	-0.009999999776482582,	9.5600004196167,	0.0625,	0.0625,	-0.125
6.217832336197234,	-0.1599999964237213,	-0.009999999776482582,	9.5600004196167,	0.0625,	0.0625,	-0.125
6.223479777011219,	-0.18000000715255737,	0.0,	9.550000190734863,	0.0,	-0.0625,	-0.0625
6.229127217825203,	-0.17000000178813934,	0.0,	9.550000190734863,	0.0,	-0.0625,	-0.0625
6.234774658639188,	-0.17000000178813934,	0.0,	9.550000190734863,	-0.0625,	-0.0625,	0.0
6.240422099453173,	-0.18000000715255737,	0.009999999776482582,	9.5600004196167,	-0.125,	0.0,	-0.0625
6.246069540267158,	-0.17000000178813934,	0.0,	9.5600004196167,	-0.125,	0.0,	-0.0625
6.251716981081143,	-0.17000000178813934,	0.0,	9.5600004196167,	0.0,	-0.0625,	-0.0625
6.257364421895128,	-0.17000000178813934,	0.009999999776482582,	9.539999961853027,	0.0,	-0.0625,	-0.0625
6.263011862709113,	-0.18000000715255737,	0.0,	9.539999961853027,	0.0,	0.125,	-0.125
6.268659303523097,	-0.18000000715255737,	-0.019999999552965164,	9.550000190734863,	0.0,	0.125,	-0.125
6.274306744337082,	-0.18000000715255737,	-0.019999999552965164,	9.550000190734863,	-0.0625,	0.0,	-0.0625
6.279954185151067,	-0.18000000715255737,	0.0,	9.550000190734863,	-0.0625,	-0.125,	-0.125
6.285601625965051,	-0.1599999964237213,	-0.009999999776482582,	9.539999961853027,	-0.0625,	-0.125,	-0.125
6.291249066779036,	-0.1599999964237213,	-0.009999999776482582,	9.539999961853027,	-0.0625,	0.0625,	-0.0625
6.296896507593021,	-0.18000000715255737,	-0.009999999776482582,	9.529999732971191,	-0.0625,	0.0625,	-0.0625
6.302543948407005,	-0.1599999964237213,	-0.019999999552965164,	9.550000190734863,	0.0625,	-0.0625,	-0.1875
6.30819138922099,	-0.17000000178813934,	-0.009999999776482582,	9.550000190734863,	0.0625,	-0.0625,	-0.1875
6.3138388300349755,	-0.17000000178813934,	-0.009999999776482582,	9.550000190734863,	0.0625,	-0.125,	0.0625
6.3194862708489605,	-0.18000000715255737,	0.0,	9.520000457763672,	0.0625,	-0.125,	0.0625
6.325133711662945,	-0.17000000178813934,	0.0,	9.550000190734863,	0.0,	0.0,	0.0625
6.33078115247693,	-0.17000000178813934,	0.0,	9.550000190734863,	-0.0625,	-0.125,	-0.0625
6.336428593290915,	-0.1899999976158142,	0.0,	9.569999694824219,	-0.0625,	-0.125,	-0.0625
6.342076034104899,	-0.1899999976158142,	0.0,	9.520000457763672,	0.125,	0.125,	-0.0625
6.347723474918884,	-0.1599999964237213,	0.0,	9.539999961853027,	0.125,	0.125,	-0.0625
6.353370915732869,	-0.1599999964237213,	0.0,	9.539999961853027,	0.0625,	0.0,	-0.1875
6.359018356546853,	-0.17000000178813934,	0.0,	9.529999732971191,	0.0625,	0.0,	-0.1875
6.364665797360838,	-0.18000000715255737,	0.0,	9.539999961853027,	-0.0625,	0.1875,	-0.125
6.370313238174823,	-0.18000000715255737,	0.0,	9.539999961853027,	-0.125,	0.0,	-0.0625
6.3759606789888075,	-0.17000000178813934,	0.0,	9.529999732971191,	-0.125,	0.0,	-0.0625
6.3816081198027925,	-0.15000000596046448,	0.0,	9.529999732971191,	-0.0625,	0.0,	-0.0625
6.387255560616778,	-0.1599999964237213,	-0.019999999552965164,	9.5600004196167,	-0.0625,	0.0,	-0.0625
6.392903001430762,	-0.1599999964237213,	-0.019999999552965164,	9.5600004196167,	0.0,	-0.125,	0.0
6.398550442244747,	-0.18000000715255737,	-0.019999999552965164,	9.520000457763672,	0.0,	-0.125,	0.0
6.404197883058732,	-0.17000000178813934,	-0.009999999776482582,	9.529999732971191,	-0.0625,	-0.0625,	-0.125
6.409845323872717,	-0.17000000178813934,	-0.009999999776482582,	9.529999732971191,	-0.125,	-0.0625,	-0.25
6.415492764686701,	-0.17000000178813934,	-0.019999999552965164,	9.550000190734863,	-0.125,	-0.0625,	-0.25
6.421140205500686,	-0.18000000715255737,	-0.009999999776482582,	9.5600004196167,	-0.0625,	0.1875,	-0.0625
6.426787646314671,	-0.18000000715255737,	-0.009999999776482582,	9.5600004196167,	-0.0625,	0.1875,	-0.0625
6.432435087128655,	-0.17000000178813934,	0.0,	9.529999732971191,	0.0625,	0.125,	-0.125
6.43808252794264,	-0.1599999964237213,	-0.009999999776482582,	9.539999961853027,	0.0625,	0.125,	-0.125
6.443729968756625,	-0.18000000715255737,	-0.019999999552965164,	9.529999732971191,	0.0625,	0.0,	-0.125
6.44937740957061,	-0.18000000715255737,	-0.019999999552965164,	9.529999732971191,	0.0625,	0.0,	-0.125
6.455024850384595,	-0.1899999976158142,	0.0,	9.550000190734863,	-0.0625,	0.0625,	-0.1875
6.46067229119858,	-0.18000000715255737,	-0.009999999776482582,	9.539999961853027,	0.0,	-0.0625,	-0.125
6.466319732012564,	-0.18000000715255737,	-0.009999999776482582,	9.539999961853027,	0.0,	-0.0625,	-0.125
6.471967172826549,	-0.17000000178813934,	0.0,	9.529999732971191,	-0.0625,	0.1875,	-0.1875
6.477614613640534,	-0.18000000715255737,	-0.009999999776482582,	9.550000190734863,	-0.0625,	0.1875,	-0.1875
6.483262054454518,	-0.18000000715255737,	-0.009999999776482582,	9.550000190734863,	0.0625,	0.0625,	-0.0625
6.488909495268503,	-0.1599999964237213,	-0.009999999776482582,	9.569999694824219,	0.0625,	0.0625,	-0.0625
6.494556936082488,	-0.17000000178813934,	0.0,	9.529999732971191,	0.0,	0.0,	-0.0625
6.500204376896473,	-0.18000000715255737,	-0.009999999776482582,	9.5600004196167,	-0.0625,	-0.125,	-0.1875
6.505851817710457,	-0.18000000715255737,	-0.009999999776482582,	9.5600004196167,	-0.0625,	-0.125,	-0.1875
6.5114992585244424,	-0.18000000715255737,	-0.009999999776482582,	9.550000190734863,	0.0,	-0.1875,	-0.125
6.5171466993384275,	-0.17000000178813934,	0.0,	9.539999961853027,	0.0,	-0.1875,	-0.125
6.522794140152412,	-0.17000000178813934,	0.0,	9.539999961853027,	-0.0625,	0.0,	0.0
6.528441580966397,	-0.18000000715255737,	-0.019999999552965164,	9.550000190734863,	-0.0625,	0.0,	0.0
6.534089021780382,	-0.1899999976158142,	-0.009999999776482582,	9.529999732971191,	0.0,	0.0625,	0.0
6.539736462594366,	-0.18000000715255737,	0.0,	9.539999961853027,	0.0,	0.0625,	0.0
6.545383903408351,	-0.18000000715255737,	0.0,	9.539999961853027,	0.0625,	-0.0625,	-0.25
6.551031344222336,	-0.18000000715255737,	-0.009999999776482582,	9.529999732971191,	-0.125,	0.0,	0.0
6.55667878503632,	-0.1599999964237213,	0.0,	9.520000457763672,	-0.125,	0.0,	0.0
6.562326225850305,	-0.1599999964237213,	0.0,	9.520000457763672,	0.0,	0.0625,	-0.25
6.56797366666429,	-0.18000000715255737,	-0.029999999329447746,	9.539999961853027,	0.0,	0.0625,	-0.25
6.573621107478274,	-0.1599999964237213,	-0.019999999552965164,	9.529999732971191,	0.0,	-0.125,	0.0625
6.5792685482922595,	-0.1599999964237213,	-0.019999999552965164,	9.529999732971191,	0.0,	-0.125,	0.0625
6.5849159891062445,	-0.17000000178813934,	-0.009999999776482582,	9.5600004196167,	0.0,	-0.1875,	0.0
6.59056342992023,	-0.18000000715255737,	0.0,	9.539999961853027,	-0.1875,	0.0,	0.0
6.596210870734214,	-0.18000000715255737,	0.0,	9.539999961853027,	-0.1875,	0.0,	0.0
6.601858311548199,	-0.15000000596046448,	0.0,	9.5600004196167,	-0.0625,	-0.0625,	0.0625
6.607505752362184,	-0.1599999964237213,	0.0,	9.539999961853027,	-0.0625,	-0.0625,	0.0625
6.613153193176168,	-0.20000000298023224,	0.0,	9.5600004196167,	0.0625,	0.0,	-0.1875
6.618800633990153,	-0.20000000298023224,	0.0,	9.5600004196167,	0.0625,	0.0,	-0.1875
6.624448074804138,	-0.17000000178813934,	0.009999999776482582,	9.539999961853027,	-0.0625,	0.0,	0.0
6.630095515618122,	-0.20000000298023224,	0.009999999776482582,	9.539999961853027,	-0.0625,	0.0,	0.0
6.635742956432107,	-0.20000000298023224,	0.009999999776482582,	9.539999961853027,	0.0,	0.0,	-0.1875
6.641390397246092,	-0.1899999976158142,	0.0,	9.529999732971191,	-0.0625,	0.0625,	0.0
6.6470378380600765,	-0.1599999964237213,	0.0,	9.529999732971191,	-0.0625,	0.0625,	0.0
6.652685278874062,	-0.17000000178813934,	-0.009999999776482582,	9.539999961853027,	-0.0625,	-0.0625,	-0.125
6.658332719688047,	-0.17000000178813934,	-0.009999999776482582,	9.539999961853027,	-0.0625,	-0.0625,	-0.125
6.663980160502031,	-0.1599999964237213,	-0.009999999776482582,	9.550000190734863,	-0.1875,	-0.125,	-0.0625
6.669627601316016,	-0.1599999964237213,	-0.009999999776482582,	9.539999961853027,	-0.1875,	-0.125,	-0.0625
6.675275042130001,	-0.1599999964237213,	-0.009999999776482582,	9.539999961853027,	-0.0625,	0.0,	-0.1875
6.680922482943986,	-0.1599999964237213,	0.0,	9.5600004196167,	0.0625,	-0.125,	0.0
6.68656992375797,	-0.17000000178813934,	0.0,	9.539999961853027,	0.0625,	-0.125,	0.0
6.692217364571955,	-0.17000000178813934,	0.0,	9.539999961853027,	-0.0625,	0.0,	0.0
6.69786480538594,	-0.1599999964237213,	-0.009999999776482582,	9.550000190734863,	-0.0625,	0.0,	0.0
6.703512246199924,	-0.20000000298023224,	0.0,	9.550000190734863,	0.0625,	-0.0625,	-0.0625
6.709159687013909,	-0.17000000178813934,	0.0,	9.5600004196167,	0.0625,	-0.0625,	-0.0625
6.7148071278278945,	-0.17000000178813934,	0.0,	9.5600004196167,	-0.25,	0.0625,	-0.0625
6.720454568641879,	-0.17000000178813934,	0.0,	9.520000457763672,	0.0,	-0.125,	-0.125
6.726102009455864,	-0.18000000715255737,	0.0,	9.5600004196167,	0.0,	-0.125,	-0.125
6.731749450269849,	-0.18000000715255737,	0.0,	9.5600004196167,	0.0,	-0.125,	0.0
6.737396891083833,	-0.17000000178813934,	0.0,	9.550000190734863,	0.0,	-0.125,	0.0
6.743044331897818,	-0.17000000178813934,	0.0,	9.550000190734863,	0.0,	-0.0625,	-0.125
6.748691772711803,	-0.17000000178813934,	0.0,	9.529999732971191,	0.0,	-0.0625,	-0.125
6.754339213525787,	-0.17000000178813934,	0.0,	9.529999732971191,	-0.0625,	-0.0625,	0.0
6.759986654339772,	-0.18000000715255737,	0.0,	9.569999694824219,	-0.0625,	-0.0625,	0.0
6.765634095153757,	-0.17000000178813934,	0.0,	9.5600004196167,	-0.0625,	-0.0625,	-0.125
6.771281535967742,	-0.17000000178813934,	0.0,	9.5600004196167,	-0.125,	-0.0625,	0.0
6.7769289767817265,	-0.15000000596046448,	0.0,	9.550000190734863,	-0.125,	-0.0625,	0.0
6.7825764175957115,	-0.15000000596046448,	0.0,	9.539999961853027,	0.0625,	-0.0625,	-0.0625
6.7882238584096966,	-0.15000000596046448,	0.0,	9.539999961853027,	0.0625,	-0.0625,	-0.0625
6.793871299223681,	-0.17000000178813934,	0.0,	9.529999732971191,	0.125,	0.0,	0.0
6.799518740037666,	-0.17000000178813934,	-0.019999999552965164,	9.5600004196167,	0.125,	0.0,	0.0
6.805166180851651,	-0.18000000715255737,	-0.019999999552965164,	9.569999694824219,	0.0625,	0.0625,	-0.125
6.810813621665635,	-0.18000000715255737,	-0.019999999552965164,	9.569999694824219,	0.0625,	0.0625,	-0.125
6.81646106247962,	-0.1899999976158142,	0.0,	9.550000190734863,	0.0,	0.0,	-0.125
6.822108503293605,	-0.17000000178813934,	0.0,	9.539999961853027,	0.0,	0.0,	-0.0625
6.827755944107589,	-0.17000000178813934,	0.0,	9.539999961853027,	0.0,	0.0,	-0.0625
6.833403384921574,	-0.17000000178813934,	0.0,	9.550000190734863,	0.0,	0.125,	0.0
6.839050825735559,	-0.1599999964237213,	0.0,	9.550000190734863,	0.0,	0.125,	0.0
6.8446982665495435,	-0.1599999964237213,	0.0,	9.550000190734863,	-0.125,	0.125,	-0.125
6.8503457073635285,	-0.18000000715255737,	0.0,	9.550000190734863,	-0.125,	0.125,	-0.125
6.855993148177514,	-0.18000000715255737,	0.0,	9.529999732971191,	0.0,	0.0625,	-0.125
6.861640588991499,	-0.18000000715255737,	0.0,	9.569999694824219,	0.0,	0.0625,	-0.125
6.867288029805483,	-0.18000000715255737,	0.0,	9.569999694824219,	0.0,	0.0625,	-0.125
6.872935470619468,	-0.1599999964237213,	-0.009999999776482582,	9.550000190734863,	-0.0625,	-0.0625,	-0.0625
6.878582911433453,	-0.1899999976158142,	0.0,	9.5600004196167,	-0.0625,	-0.0625,	-0.0625
6.884230352247437,	-0.1899999976158142,	0.0,	9.5600004196167,	0.0625,	-0.125,	-0.125
6.889877793061422,	-0.17000000178813934,	0.0,	9.520000457763672,	0.0625,	-0.125,	-0.125
6.895525233875407,	-0.18000000715255737,	0.0,	9.539999961853027,	0.0,	0.125,	-0.125
6.901172674689391,	-0.17000000178813934,	0.0,	9.550000190734863,	0.0,	0.125,	-0.125
6.906820115503376,	-0.17000000178813934,	0.0,	9.550000190734863,	0.0,	-0.125,	0.0
6.912467556317361,	-0.20000000298023224,	-0.009999999776482582,	9.550000190734863,	0.0,	-0.1875,	0.0
6.918114997131346,	-0.17000000178813934,	0.0,	9.5600004196167,	0.0,	-0.1875,	0.0
6.923762437945331,	-0.17000000178813934,	0.0,	9.5600004196167,	-0.0625,	0.0625,	-0.125
6.929409878759316,	-0.18000000715255737,	-0.009999999776482582,	9.5600004196167,	-0.0625,	0.0625,	-0.125
6.9350573195733,	-0.1599999964237213,	0.0,	9.539999961853027,	-0.1875,	0.125,	0.0
6.940704760387285,	-0.1599999964237213,	0.0,	9.539999961853027,	-0.1875,	0.125,	0.0
6.94635220120127,	-0.1599999964237213,	0.0,	9.550000190734863,	0.0,	-0.125,	0.0
6.951999642015255,	-0.1899999976158142,	0.0,	9.529999732971191,	-0.0625,	-0.0625,	-0.0625
6.957647082829239,	-0.1599999964237213,	0.0,	9.550000190734863,	-0.0625,	-0.0625,	-0.0625
6.963294523643224,	-0.1599999964237213,	0.0,	9.550000190734863,	0.0,	0.0,	0.0625
6.968941964457209,	-0.17000000178813934,	-0.019999999552965164,	9.539999961853027,	0.0,	0.0,	0.0625
6.974589405271193,	-0.18000000715255737,	0.0,	9.550000190734863,	0.0,	-0.125,	0.125
6.9802368460851785,	-0.18000000715255737,	0.0,	9.550000190734863,	0.0,	-0.125,	0.125
6.9858842868991635,	-0.1599999964237213,	-0.009999999776482582,	9.550000190734863,	-0.0625,	0.0,	-0.0625
6.991531727713148,	-0.17000000178813934,	0.0,	9.539999961853027,	-0.125,	-0.0625,	-0.125
6.997179168527133,	-0.17000000178813934,	0.0,	9.539999961853027,	-0.125,	-0.0625,	-0.125
7.002826609341118,	-0.17000000178813934,	0.009999999776482582,	9.5600004196167,	0.0,	0.0625,	-0.0625
7.008474050155102,	-0.18000000715255737,	-0.009999999776482582,	9.510000228881836,	0.0,	0.0625,	-0.0625
7.014121490969087,	-0.1599999964237213,	0.0,	9.550000190734863,	0.0625,	0.0,	-0.125
7.019768931783072,	-0.1599999964237213,	0.0,	9.550000190734863,	0.0625,	0.0,	-0.125
7.025416372597056,	-0.17000000178813934,	0.0,	9.550000190734863,	0.0625,	-0.0625,	-0.1875
7.031063813411041,	-0.17000000178813934,	0.0,	9.529999732971191,	0.0625,	-0.0625,	-0.1875
7.036711254225026,	-0.17000000178813934,	0.0,	9.529999732971191,	0.0,	-0.0625,	-0.1875
7.042358695039011,	-0.17000000178813934,	0.0,	9.569999694824219,	0.0,	-0.125,	-0.0625
7.0480061358529955,	-0.18000000715255737,	-0.009999999776482582,	9.539999961853027,	0.0,	-0.125,	-0.0625
7.053653576666981,	-0.18000000715255737,	-0.009999999776482582,	9.539999961853027,	-0.125,	0.125,	-0.1875
7.059301017480966,	-0.1599999964237213,	-0.019999999552965164,	9.520000457763672,	-0.125,	0.125,	-0.1875
7.06494845829495,	-0.20000000298023224,	0.0,	9.5600004196167,	0.0625,	0.1875,	-0.1875
7.070595899108935,	-0.1899999976158142,	-0.009999999776482582,	9.550000190734863,	0.0625,	0.1875,	-0.1875
7.07624333992292,	-0.1899999976158142,	-0.009999999776482582,	9.550000190734863,	-0.0625,	0.0625,	0.0
7.081890780736904,	-0.17000000178813934,	-0.019999999552965164,	9.5600004196167,	-0.0625,	0.0,	-0.125
7.087538221550889,	-0.18000000715255737,	0.0,	9.5600004196167,	-0.0625,	0.0,	-0.125
7.093185662364874,	-0.18000000715255737,	0.0,	9.5600004196167,	-0.0625,	-0.0625,	0.0
7.098833103178858,	-0.17000000178813934,	0.0,	9.520000457763672,	-0.0625,	-0.0625,	0.0
7.104480543992843,	-0.15000000596046448,	0.009999999776482582,	9.539999961853027,	-0.0625,	0.0,	-0.0625
7.110127984806828,	-0.1599999964237213,	0.0,	9.529999732971191,	-0.0625,	0.0,	-0.0625
7.1157754256208126,	-0.1599999964237213,	0.0,	9.529999732971191,	-0.0625,	-0.0625,	-0.125
7.121422866434798,	-0.1599999964237213,	0.0,	9.539999961853027,	-0.0625,	-0.0625,	-0.125
7.127070307248783,	-0.17000000178813934,	-0.019999999552965164,	9.5600004196167,	-0.0625,	-0.0625,	-0.0625
7.132717748062768,	-0.17000000178813934,	-0.019999999552965164,	9.5600004196167,	-0.0625,	-0.0625,	-0.125
7.138365188876752,	-0.17000000178813934,	-0.019999999552965164,	9.550000190734863,	-0.0625,	-0.0625,	-0.125
7.144012629690737,	-0.1599999964237213,	0.0,	9.569999694824219,	0.0625,	-0.0625,	-0.1875
7.149660070504722,	-0.1599999964237213,	0.0,	9.569999694824219,	0.0625,	-0.0625,	-0.1875
7.155307511318706,	-0.17000000178813934,	0.0,	9.529999732971191,	0.125,	0.0625,	-0.0625
7.160954952132691,	-0.17000000178813934,	-0.009999999776482582,	9.529999732971191,	0.125,	0.0625,	-0.0625
7.166602392946676,	-0.1599999964237213,	-0.009999999776482582,	9.539999961853027,	-0.0625,	0.0,	-0.0625
7.17224983376066,	-0.1599999964237213,	-0.009999999776482582,	9.539999961853027,	-0.0625,	0.0,	-0.0625
7.177897274574645,	-0.17000000178813934,	0.0,	9.529999732971191,	-0.0625,	0.125,	-0.1875
7.1835447153886305,	-0.17000000178813934,	0.0,	9.529999732971191,	-0.125,	-0.0625,	-0.0625
7.189192156202615,	-0.17000000178813934,	0.0,	9.529999732971191,	-0.125,	-0.0625,	-0.0625
7.1948395970166,	-0.18000000715255737,	0.0,	9.529999732971191,	-0.1875,	0.0625,	-0.0625
7.200487037830585,	-0.18000000715255737,	-0.019999999552965164,	9.529999732971191,	-0.1875,	0.0625,	-0.0625
7.206134478644569,	-0.18000000715255737,	-0.019999999552965164,	9.529999732971191,	-0.0625,	-0.125,	-0.0625
7.211781919458554,	-0.1899999976158142,	0.009999999776482582,	9.529999732971191,	-0.0625,	-0.125,	-0.0625
